"trial_type","trial_index","time_elapsed","internal_node_id","subject","success","timeout","failed_images","failed_audio","failed_video","rt","response","stimulus"
"pavlovia","0","1545","0.0-0.0","4d9c","","","","","","","",""
"preload","1","1546","0.0-1.0","4d9c","true","false","[]","[]","[]","","",""
"survey-html-form","2","5910","0.0-2.0","4d9c","","","","","","4363","{""code"":""61530d04a2176282b7ee6fac""}",""
"html-button-response","3","27739","0.0-3.0","4d9c","","","","","","21826","0","<h2>Willkommen zum Experiment!</h2><div class=""myDiv""><p>Vielen Dank f&uuml;r Ihr Interesse an dieser Studie. Wir bitten Sie <strong>Kopfh&ouml;rer</strong> daf&uuml;r zu verwenden.</p></div><div><img src=""pics/headphones.png"" title=""Earbuds are also fine"" width=""250"" height=""200"" class=""center""></div><div class=""myDiv""><p>Das Experiment besteht aus zwei Teilen:</p> <ol> <li>Eine <strong>Unterscheidungsaufgabe,</strong> in der Sie zwei W&ouml;rter h&ouml;ren. Im Anschluss sollen Sie feststellen, ob diese W&ouml;rter gleich oder unterschiedlich sind;</li><li>Eine <strong>Identifikationsaufgabe,</strong> in der Sie nur ein Wort h&ouml;ren, wobei Ihnen aber zwei Bilder gezeigt werden. Ihre Aufgabe ist es, dasjenige Bild auszuw&auml;hlen, das das geh&ouml;rte Wort darstellt.</li> </ol><p>Wir bitten Sie um Ihre Zustimmung, bevor wir Ihre Daten sammeln und verwenden. Bitte klicken Sie auf den ""Start""-Button, um Ihre Zustimmung zu geben. Anschlie&szlig;end werden wir ein paar Fragen zu Ihren Sprachkenntnissen stellen. Danach k&ouml;nnen Sie das Experiment starten. </p></div>"
"survey-html-form","4","34229","0.0-4.0","4d9c","","","","","","6489","{""zustimmung"":""on""}",""
"survey-html-form","5","122617","0.0-5.0","4d9c","","","","","","88386","{""native"":""Englisch"",""AOL"":""13"",""LearnType1"":""classeshome"",""LearnType6"":""immersion"",""which"":"""",""AOA"":""20"",""timespent"":""9 Monate""}",""
"audio-button-response","6","127788","0.0-6.0-0.0","4d9c","","","","","","4720","1","audio_projekt/treffen1.wav"
"html-keyboard-response","7","143234","0.0-7.0","4d9c","","","","","","15444"," ","<h2>Teil 1: Unterscheidungsaufgabe</h2><div class=""myDiv""><p>In diesem Teil des Experimentes werden Sie im Abstand von 1.5 Sekunden <b>zwei W&ouml;rter</b> h&ouml;ren.</p><ul><li>Ihre Aufgabe ist es, festzustellen, ob diese W&ouml;rter <b>gleich oder unterschiedlich</b> sind. Wenn es einen Unterschied gibt, besteht dieser nur aus einem Vokal. </li> <li>Dr&uuml;cken Sie die <b>Taste Q</b>, wenn die W&ouml;rter gleich sind. Dr&uuml;cken Sie die <b>Taste P</b>, wenn die W&ouml;rter unterschiedlich sind.</li><li>Bitte warten Sie, bis Sie <b>beide Wörter gehört haben</b>, bevor Sie eine Taste drücken. Aber Achtung: Sie haben nur <b>5 Sekunden</b>, um eine Option auszuw&auml;hlen! &Uuml;berlegen Sie daher bitte nicht zu lange.</li></ul><br><p>Dr&uuml;cken Sie eine beliebige Taste, um ein paar Testversuche zu machen.</p></ul></div>"
"audio-keyboard-response","8","147067","0.0-8.0-0.0","4d9c","","","","","","null","null","audio_projekt/treffen1500triefen.wav"
"html-keyboard-response","9","147742","0.0-8.0-1.0","4d9c","","","","","","674","p","<div></div>"
"audio-keyboard-response","10","151887","0.0-8.0-0.1","4d9c","","","","","","null","null","audio_projekt/treffen1500treffen.wav"
"html-keyboard-response","11","153090","0.0-8.0-1.1","4d9c","","","","","","1203","q","<div></div>"
"html-keyboard-response","12","155244","0.0-9.0","4d9c","","","","","","1348"," ","<p>Gut! Jetzt f&auml;ngt der erste Teil des Experiments an. Dieser Teil dauert ca. 10 Minuten.</p><br><p>Bitte dr&uuml;cken Sie eine beliebige Taste, um fortzufahren.<div style=""height:30px; width:100%""></div>"
"audio-keyboard-response","13","158087","0.0-10.0-0.0","4d9c","","","","","","null","null","audio_projekt/tier1500tour.wav"
"html-keyboard-response","14","158547","0.0-10.0-1.0","4d9c","","","","","","459","p","<div></div>"
"audio-keyboard-response","15","162467","0.0-10.0-0.1","4d9c","","","","","","null","null","audio_projekt/buehne1500buehne.wav"
"html-keyboard-response","16","162646","0.0-10.0-1.1","4d9c","","","","","","178","q","<div></div>"
"audio-keyboard-response","17","166467","0.0-10.0-0.2","4d9c","","","","","","null","null","audio_projekt/bluten1500blueten.wav"
"html-keyboard-response","18","166884","0.0-10.0-1.2","4d9c","","","","","","416","p","<div></div>"
"audio-keyboard-response","19","171208","0.0-10.0-0.3","4d9c","","","","","","null","null","audio_projekt/spielen1500spulen.wav"
"html-keyboard-response","20","172108","0.0-10.0-1.3","4d9c","","","","","","899","p","<div></div>"
"audio-keyboard-response","21","175907","0.0-10.0-0.4","4d9c","","","","","","null","null","audio_projekt/leder1500lieder.wav"
"html-keyboard-response","22","176145","0.0-10.0-1.4","4d9c","","","","","","237","p","<div></div>"
"audio-keyboard-response","23","179627","0.0-10.0-0.5","4d9c","","","","","","null","null","audio_projekt/tour1500tier.wav"
"html-keyboard-response","24","179804","0.0-10.0-1.5","4d9c","","","","","","177","p","<div></div>"
"audio-keyboard-response","25","183447","0.0-10.0-0.6","4d9c","","","","","","null","null","audio_projekt/blueten1500bluten.wav"
"html-keyboard-response","26","184193","0.0-10.0-1.6","4d9c","","","","","","745","p","<div></div>"
"audio-keyboard-response","27","188446","0.0-10.0-0.7","4d9c","","","","","","null","null","audio_projekt/siegel1500segel.wav"
"html-keyboard-response","28","188584","0.0-10.0-1.7","4d9c","","","","","","137","p","<div></div>"
"audio-keyboard-response","29","192986","0.0-10.0-0.8","4d9c","","","","","","null","null","audio_projekt/spielen1500spuelen.wav"
"html-keyboard-response","30","193395","0.0-10.0-1.8","4d9c","","","","","","408","p","<div></div>"
"audio-keyboard-response","31","197146","0.0-10.0-0.9","4d9c","","","","","","null","null","audio_projekt/buehne1500biene.wav"
"html-keyboard-response","32","197568","0.0-10.0-1.9","4d9c","","","","","","421","p","<div></div>"
"audio-keyboard-response","33","200926","0.0-10.0-0.10","4d9c","","","","","","null","null","audio_projekt/buehne1500biene.wav"
"html-keyboard-response","34","201101","0.0-10.0-1.10","4d9c","","","","","","174","p","<div></div>"
"audio-keyboard-response","35","206927","0.0-10.0-0.11","4d9c","","","","","","null","null","audio_projekt/spielen1500spielen.wav"
"html-keyboard-response","36","207173","0.0-10.0-1.11","4d9c","","","","","","245","q","<div></div>"
"audio-keyboard-response","37","211107","0.0-10.0-0.12","4d9c","","","","","","null","null","audio_projekt/kiel1500kuehl.wav"
"html-keyboard-response","38","211640","0.0-10.0-1.12","4d9c","","","","","","532","p","<div></div>"
"audio-keyboard-response","39","215527","0.0-10.0-0.13","4d9c","","","","","","null","null","audio_projekt/bluten1500bluten.wav"
"html-keyboard-response","40","215830","0.0-10.0-1.13","4d9c","","","","","","302","q","<div></div>"
"audio-keyboard-response","41","220387","0.0-10.0-0.14","4d9c","","","","","","null","null","audio_projekt/spulen1500spielen.wav"
"html-keyboard-response","42","221532","0.0-10.0-1.14","4d9c","","","","","","1144","p","<div></div>"
"audio-keyboard-response","43","225907","0.0-10.0-0.15","4d9c","","","","","","null","null","audio_projekt/segel1500segel.wav"
"html-keyboard-response","44","226100","0.0-10.0-1.15","4d9c","","","","","","192","q","<div></div>"
"audio-keyboard-response","45","230487","0.0-10.0-0.16","4d9c","","","","","","null","null","audio_projekt/spuelen1500spulen.wav"
"html-keyboard-response","46","230848","0.0-10.0-1.16","4d9c","","","","","","361","p","<div></div>"
"audio-keyboard-response","47","235207","0.0-10.0-0.17","4d9c","","","","","","null","null","audio_projekt/stiel1500stuhl.wav"
"html-keyboard-response","48","235245","0.0-10.0-1.17","4d9c","","","","","","37","p","<div></div>"
"audio-keyboard-response","49","239407","0.0-10.0-0.18","4d9c","","","","","","null","null","audio_projekt/leder1500leder.wav"
"html-keyboard-response","50","239490","0.0-10.0-1.18","4d9c","","","","","","83","q","<div></div>"
"audio-keyboard-response","51","243767","0.0-10.0-0.19","4d9c","","","","","","null","null","audio_projekt/stiel1500stiel.wav"
"html-keyboard-response","52","243976","0.0-10.0-1.19","4d9c","","","","","","208","q","<div></div>"
"audio-keyboard-response","53","247508","0.0-10.0-0.20","4d9c","","","","","","null","null","audio_projekt/leder1500leder.wav"
"html-keyboard-response","54","247728","0.0-10.0-1.20","4d9c","","","","","","220","q","<div></div>"
"audio-keyboard-response","55","251628","0.0-10.0-0.21","4d9c","","","","","","null","null","audio_projekt/segel1500segel.wav"
"html-keyboard-response","56","251696","0.0-10.0-1.21","4d9c","","","","","","68","q","<div></div>"
"audio-keyboard-response","57","255488","0.0-10.0-0.22","4d9c","","","","","","null","null","audio_projekt/tour1500tuer.wav"
"html-keyboard-response","58","256175","0.0-10.0-1.22","4d9c","","","","","","687","p","<div></div>"
"audio-keyboard-response","59","260008","0.0-10.0-0.23","4d9c","","","","","","null","null","audio_projekt/kuehl1500kuehl.wav"
"html-keyboard-response","60","260771","0.0-10.0-1.23","4d9c","","","","","","762","q","<div></div>"
"audio-keyboard-response","61","264348","0.0-10.0-0.24","4d9c","","","","","","null","null","audio_projekt/tour1500tour.wav"
"html-keyboard-response","62","264947","0.0-10.0-1.24","4d9c","","","","","","599","q","<div></div>"
"audio-keyboard-response","63","268968","0.0-10.0-0.25","4d9c","","","","","","null","null","audio_projekt/spielen1500spuelen.wav"
"html-keyboard-response","64","269169","0.0-10.0-1.25","4d9c","","","","","","200","p","<div></div>"
"audio-keyboard-response","65","272928","0.0-10.0-0.26","4d9c","","","","","","null","null","audio_projekt/biene1500buehne.wav"
"html-keyboard-response","66","273378","0.0-10.0-1.26","4d9c","","","","","","449","p","<div></div>"
"audio-keyboard-response","67","277808","0.0-10.0-0.27","4d9c","","","","","","null","null","audio_projekt/stuhl1500stiel.wav"
"html-keyboard-response","68","278168","0.0-10.0-1.27","4d9c","","","","","","360","p","<div></div>"
"audio-keyboard-response","69","281607","0.0-10.0-0.28","4d9c","","","","","","null","null","audio_projekt/bluten1500blueten.wav"
"html-keyboard-response","70","282233","0.0-10.0-1.28","4d9c","","","","","","625","p","<div></div>"
"audio-keyboard-response","71","286507","0.0-10.0-0.29","4d9c","","","","","","null","null","audio_projekt/lieder1500lieder.wav"
"html-keyboard-response","72","287180","0.0-10.0-1.29","4d9c","","","","","","672","q","<div></div>"
"audio-keyboard-response","73","290427","0.0-10.0-0.30","4d9c","","","","","","null","null","audio_projekt/tour1500tier.wav"
"html-keyboard-response","74","290756","0.0-10.0-1.30","4d9c","","","","","","328","p","<div></div>"
"audio-keyboard-response","75","295407","0.0-10.0-0.31","4d9c","","","","","","null","null","audio_projekt/lieder1500leder.wav"
"html-keyboard-response","76","295808","0.0-10.0-1.31","4d9c","","","","","","400","p","<div></div>"
"audio-keyboard-response","77","299967","0.0-10.0-0.32","4d9c","","","","","","null","null","audio_projekt/segel1500siegel.wav"
"html-keyboard-response","78","304596","0.0-10.0-1.32","4d9c","","","","","","4627","p","<div></div>"
"audio-keyboard-response","79","308308","0.0-10.0-0.33","4d9c","","","","","","null","null","audio_projekt/biene1500biene.wav"
"html-keyboard-response","80","309310","0.0-10.0-1.33","4d9c","","","","","","1001","q","<div></div>"
"audio-keyboard-response","81","312827","0.0-10.0-0.34","4d9c","","","","","","null","null","audio_projekt/tuer1500tuer.wav"
"html-keyboard-response","82","313298","0.0-10.0-1.34","4d9c","","","","","","471","q","<div></div>"
"audio-keyboard-response","83","317347","0.0-10.0-0.35","4d9c","","","","","","null","null","audio_projekt/spielen1500spulen.wav"
"html-keyboard-response","84","317509","0.0-10.0-1.35","4d9c","","","","","","161","p","<div></div>"
"audio-keyboard-response","85","321328","0.0-10.0-0.36","4d9c","","","","","","null","null","audio_projekt/stiel1500stiel.wav"
"html-keyboard-response","86","321687","0.0-10.0-1.36","4d9c","","","","","","358","q","<div></div>"
"audio-keyboard-response","87","325488","0.0-10.0-0.37","4d9c","","","","","","null","null","audio_projekt/blueten1500blueten.wav"
"html-keyboard-response","88","325859","0.0-10.0-1.37","4d9c","","","","","","371","q","<div></div>"
"audio-keyboard-response","89","330167","0.0-10.0-0.38","4d9c","","","","","","null","null","audio_projekt/spulen1500spulen.wav"
"html-keyboard-response","90","330264","0.0-10.0-1.38","4d9c","","","","","","96","q","<div></div>"
"audio-keyboard-response","91","333827","0.0-10.0-0.39","4d9c","","","","","","null","null","audio_projekt/leder1500lieder.wav"
"html-keyboard-response","92","334339","0.0-10.0-1.39","4d9c","","","","","","512","p","<div></div>"
"audio-keyboard-response","93","338147","0.0-10.0-0.40","4d9c","","","","","","null","null","audio_projekt/stiel1500stuhl.wav"
"html-keyboard-response","94","338499","0.0-10.0-1.40","4d9c","","","","","","351","p","<div></div>"
"audio-keyboard-response","95","342827","0.0-10.0-0.41","4d9c","","","","","","null","null","audio_projekt/stuhl1500stuhl.wav"
"html-keyboard-response","96","343313","0.0-10.0-1.41","4d9c","","","","","","485","q","<div></div>"
"audio-keyboard-response","97","346688","0.0-10.0-0.42","4d9c","","","","","","null","null","audio_projekt/biene1500buehne.wav"
"html-keyboard-response","98","347306","0.0-10.0-1.42","4d9c","","","","","","617","p","<div></div>"
"audio-keyboard-response","99","350688","0.0-10.0-0.43","4d9c","","","","","","null","null","audio_projekt/buehne1500buehne.wav"
"html-keyboard-response","100","351277","0.0-10.0-1.43","4d9c","","","","","","588","q","<div></div>"
"audio-keyboard-response","101","356948","0.0-10.0-0.44","4d9c","","","","","","null","null","audio_projekt/spuelen1500spuelen.wav"
"html-keyboard-response","102","357133","0.0-10.0-1.44","4d9c","","","","","","183","q","<div></div>"
"audio-keyboard-response","103","360688","0.0-10.0-0.45","4d9c","","","","","","null","null","audio_projekt/lieder1500leder.wav"
"html-keyboard-response","104","360832","0.0-10.0-1.45","4d9c","","","","","","143","p","<div></div>"
"audio-keyboard-response","105","364368","0.0-10.0-0.46","4d9c","","","","","","null","null","audio_projekt/tuer1500tour.wav"
"html-keyboard-response","106","364564","0.0-10.0-1.46","4d9c","","","","","","196","p","<div></div>"
"audio-keyboard-response","107","368588","0.0-10.0-0.47","4d9c","","","","","","null","null","audio_projekt/spielen1500spielen.wav"
"html-keyboard-response","108","369352","0.0-10.0-1.47","4d9c","","","","","","763","q","<div></div>"
"audio-keyboard-response","109","372588","0.0-10.0-0.48","4d9c","","","","","","null","null","audio_projekt/tuer1500tour.wav"
"html-keyboard-response","110","372951","0.0-10.0-1.48","4d9c","","","","","","363","p","<div></div>"
"audio-keyboard-response","111","376888","0.0-10.0-0.49","4d9c","","","","","","null","null","audio_projekt/kiel1500kiel.wav"
"html-keyboard-response","112","377180","0.0-10.0-1.49","4d9c","","","","","","291","q","<div></div>"
"audio-keyboard-response","113","381388","0.0-10.0-0.50","4d9c","","","","","","null","null","audio_projekt/siegel1500siegel.wav"
"html-keyboard-response","114","382135","0.0-10.0-1.50","4d9c","","","","","","746","q","<div></div>"
"audio-keyboard-response","115","385648","0.0-10.0-0.51","4d9c","","","","","","null","null","audio_projekt/kuehl1500kuehl.wav"
"html-keyboard-response","116","386070","0.0-10.0-1.51","4d9c","","","","","","422","q","<div></div>"
"audio-keyboard-response","117","390308","0.0-10.0-0.52","4d9c","","","","","","null","null","audio_projekt/spulen1500spuelen.wav"
"html-keyboard-response","118","390776","0.0-10.0-1.52","4d9c","","","","","","467","p","<div></div>"
"audio-keyboard-response","119","394028","0.0-10.0-0.53","4d9c","","","","","","null","null","audio_projekt/tour1500tuer.wav"
"html-keyboard-response","120","394409","0.0-10.0-1.53","4d9c","","","","","","380","p","<div></div>"
"audio-keyboard-response","121","397908","0.0-10.0-0.54","4d9c","","","","","","null","null","audio_projekt/kiel1500kiel.wav"
"html-keyboard-response","122","398125","0.0-10.0-1.54","4d9c","","","","","","216","q","<div></div>"
"audio-keyboard-response","123","401488","0.0-10.0-0.55","4d9c","","","","","","null","null","audio_projekt/biene1500biene.wav"
"html-keyboard-response","124","401807","0.0-10.0-1.55","4d9c","","","","","","318","q","<div></div>"
"audio-keyboard-response","125","405068","0.0-10.0-0.56","4d9c","","","","","","null","null","audio_projekt/tier1500tour.wav"
"html-keyboard-response","126","405511","0.0-10.0-1.56","4d9c","","","","","","442","p","<div></div>"
"audio-keyboard-response","127","409328","0.0-10.0-0.57","4d9c","","","","","","null","null","audio_projekt/stuhl1500stuhl.wav"
"html-keyboard-response","128","409480","0.0-10.0-1.57","4d9c","","","","","","152","q","<div></div>"
"audio-keyboard-response","129","413349","0.0-10.0-0.58","4d9c","","","","","","null","null","audio_projekt/spuelen1500spulen.wav"
"html-keyboard-response","130","413546","0.0-10.0-1.58","4d9c","","","","","","196","p","<div></div>"
"audio-keyboard-response","131","417868","0.0-10.0-0.59","4d9c","","","","","","null","null","audio_projekt/spuelen1500spielen.wav"
"html-keyboard-response","132","418082","0.0-10.0-1.59","4d9c","","","","","","213","p","<div></div>"
"audio-keyboard-response","133","422088","0.0-10.0-0.60","4d9c","","","","","","null","null","audio_projekt/spuelen1500spuelen.wav"
"html-keyboard-response","134","422226","0.0-10.0-1.60","4d9c","","","","","","137","q","<div></div>"
"audio-keyboard-response","135","426269","0.0-10.0-0.61","4d9c","","","","","","null","null","audio_projekt/spulen1500spulen.wav"
"html-keyboard-response","136","426530","0.0-10.0-1.61","4d9c","","","","","","261","q","<div></div>"
"audio-keyboard-response","137","430428","0.0-10.0-0.62","4d9c","","","","","","null","null","audio_projekt/siegel1500segel.wav"
"html-keyboard-response","138","430570","0.0-10.0-1.62","4d9c","","","","","","142","p","<div></div>"
"audio-keyboard-response","139","434468","0.0-10.0-0.63","4d9c","","","","","","null","null","audio_projekt/kuehl1500kiel.wav"
"html-keyboard-response","140","435246","0.0-10.0-1.63","4d9c","","","","","","777","p","<div></div>"
"audio-keyboard-response","141","438509","0.0-10.0-0.64","4d9c","","","","","","null","null","audio_projekt/tuer1500tuer.wav"
"html-keyboard-response","142","438701","0.0-10.0-1.64","4d9c","","","","","","191","q","<div></div>"
"audio-keyboard-response","143","442149","0.0-10.0-0.65","4d9c","","","","","","null","null","audio_projekt/bluten1500bluten.wav"
"html-keyboard-response","144","442559","0.0-10.0-1.65","4d9c","","","","","","409","p","<div></div>"
"audio-keyboard-response","145","446609","0.0-10.0-0.66","4d9c","","","","","","null","null","audio_projekt/spulen1500spielen.wav"
"html-keyboard-response","146","446789","0.0-10.0-1.66","4d9c","","","","","","180","p","<div></div>"
"audio-keyboard-response","147","450448","0.0-10.0-0.67","4d9c","","","","","","null","null","audio_projekt/tier1500tier.wav"
"html-keyboard-response","148","450973","0.0-10.0-1.67","4d9c","","","","","","524","q","<div></div>"
"audio-keyboard-response","149","454429","0.0-10.0-0.68","4d9c","","","","","","null","null","audio_projekt/blueten1500bluten.wav"
"html-keyboard-response","150","454565","0.0-10.0-1.68","4d9c","","","","","","135","p","<div></div>"
"audio-keyboard-response","151","458569","0.0-10.0-0.69","4d9c","","","","","","null","null","audio_projekt/spuelen1500spielen.wav"
"html-keyboard-response","152","458758","0.0-10.0-1.69","4d9c","","","","","","188","p","<div></div>"
"audio-keyboard-response","153","462309","0.0-10.0-0.70","4d9c","","","","","","null","null","audio_projekt/lieder1500lieder.wav"
"html-keyboard-response","154","462787","0.0-10.0-1.70","4d9c","","","","","","478","q","<div></div>"
"audio-keyboard-response","155","466608","0.0-10.0-0.71","4d9c","","","","","","null","null","audio_projekt/stuhl1500stiel.wav"
"html-keyboard-response","156","466861","0.0-10.0-1.71","4d9c","","","","","","252","p","<div></div>"
"audio-keyboard-response","157","470388","0.0-10.0-0.72","4d9c","","","","","","null","null","audio_projekt/kiel1500kuehl.wav"
"html-keyboard-response","158","470597","0.0-10.0-1.72","4d9c","","","","","","208","p","<div></div>"
"audio-keyboard-response","159","474108","0.0-10.0-0.73","4d9c","","","","","","null","null","audio_projekt/kuehl1500kiel.wav"
"html-keyboard-response","160","474271","0.0-10.0-1.73","4d9c","","","","","","162","p","<div></div>"
"audio-keyboard-response","161","477529","0.0-10.0-0.74","4d9c","","","","","","null","null","audio_projekt/tour1500tour.wav"
"html-keyboard-response","162","477900","0.0-10.0-1.74","4d9c","","","","","","371","q","<div></div>"
"audio-keyboard-response","163","481149","0.0-10.0-0.75","4d9c","","","","","","null","null","audio_projekt/tier1500tier.wav"
"html-keyboard-response","164","481490","0.0-10.0-1.75","4d9c","","","","","","340","q","<div></div>"
"audio-keyboard-response","165","485349","0.0-10.0-0.76","4d9c","","","","","","null","null","audio_projekt/spulen1500spuelen.wav"
"html-keyboard-response","166","485595","0.0-10.0-1.76","4d9c","","","","","","246","p","<div></div>"
"audio-keyboard-response","167","489488","0.0-10.0-0.77","4d9c","","","","","","null","null","audio_projekt/siegel1500siegel.wav"
"html-keyboard-response","168","489622","0.0-10.0-1.77","4d9c","","","","","","133","q","<div></div>"
"audio-keyboard-response","169","493508","0.0-10.0-0.78","4d9c","","","","","","null","null","audio_projekt/segel1500siegel.wav"
"html-keyboard-response","170","493688","0.0-10.0-1.78","4d9c","","","","","","179","p","<div></div>"
"audio-keyboard-response","171","497148","0.0-10.0-0.79","4d9c","","","","","","null","null","audio_projekt/blueten1500blueten.wav"
"html-keyboard-response","172","497187","0.0-10.0-1.79","4d9c","","","","","","38","q","<div></div>"
"html-keyboard-response","173","503475","0.0-11.0","4d9c","","","","","","5480"," ","<h2>Pause</h2><div class=""myDiv""><p>Gut gemacht! Jetzt k&ouml;nnen Sie eine kleine Pause machen.</p></div><div><img src=""pics/coffee.png"" title=""Machen Sie eine Pause..."" width=""150"" height=""150"" class=""center""></div><div style=""height:20px; width:100%""></div><p>Wenn Sie bereit sind, dr&uuml;cken Sie eine beliebige Taste, um fortzufahren.</p>"
"html-keyboard-response","174","512561","0.0-12.0","4d9c","","","","","","9086","p","<h2>Teil 2: Identifikationsaufgabe: Vorbereitung 1</h2><div class=""myDiv""><p>In diesem Teil des Experimentes werden Sie nur ein Wort h&ouml;ren. </p><p>Anschlie&szlig;end werden zwei Bilder gezeigt. W&auml;hlen Sie das Bild aus, das das Wort darstellt.</p><p>Bevor die Aufgabe beginnt, werden die Bilder mit den entsprechenden W&ouml;rtern angezeigt. Sie werden jedes Bild zweimal sehen.</p><p>Dr&uuml;cken Sie bitte eine beliebige Taste, um die Bilder zu sehen.</p>"
"audio-button-response","175","519428","0.0-13.0-0.0-0.0","4d9c","","","","","","6674","0","audio_projekt/blueten.wav"
"audio-button-response","176","521822","0.0-13.0-0.0-0.1","4d9c","","","","","","2299","0","audio_projekt/beten1.wav"
"audio-button-response","177","524346","0.0-13.0-0.0-0.2","4d9c","","","","","","2437","0","audio_projekt/tuer.wav"
"audio-button-response","178","527829","0.0-13.0-0.0-0.3","4d9c","","","","","","3382","0","audio_projekt/bluten.wav"
"audio-button-response","179","530120","0.0-13.0-0.0-0.4","4d9c","","","","","","2192","0","audio_projekt/buehne.wav"
"audio-button-response","180","532866","0.0-13.0-0.0-0.5","4d9c","","","","","","2542","0","audio_projekt/leder.wav"
"audio-button-response","181","534897","0.0-13.0-0.0-0.6","4d9c","","","","","","1935","0","audio_projekt/bieten1.wav"
"audio-button-response","182","537246","0.0-13.0-0.0-0.7","4d9c","","","","","","2216","0","audio_projekt/spulen.wav"
"audio-button-response","183","539455","0.0-13.0-0.0-0.8","4d9c","","","","","","1928","0","audio_projekt/biene.wav"
"audio-button-response","184","541146","0.0-13.0-0.0-0.9","4d9c","","","","","","1563","0","audio_projekt/segel.wav"
"audio-button-response","185","543997","0.0-13.0-0.0-0.10","4d9c","","","","","","2749","0","audio_projekt/stuhl.wav"
"audio-button-response","186","545835","0.0-13.0-0.0-0.11","4d9c","","","","","","1749","0","audio_projekt/tier.wav"
"audio-button-response","187","548640","0.0-13.0-0.0-0.12","4d9c","","","","","","2707","0","audio_projekt/treffen2.wav"
"audio-button-response","188","551804","0.0-13.0-0.0-0.13","4d9c","","","","","","3069","0","audio_projekt/stiel.wav"
"audio-button-response","189","554381","0.0-13.0-0.0-0.14","4d9c","","","","","","2479","0","audio_projekt/siegel.wav"
"audio-button-response","190","557570","0.0-13.0-0.0-0.15","4d9c","","","","","","3101","0","audio_projekt/tour.wav"
"audio-button-response","191","560841","0.0-13.0-0.0-0.16","4d9c","","","","","","3170","0","audio_projekt/lieder.wav"
"audio-button-response","192","562265","0.0-13.0-0.0-0.17","4d9c","","","","","","1349","0","audio_projekt/spuelen2.wav"
"audio-button-response","193","564015","0.0-13.0-0.0-0.18","4d9c","","","","","","1657","0","audio_projekt/kiel.wav"
"audio-button-response","194","565519","0.0-13.0-0.0-0.19","4d9c","","","","","","1407","0","audio_projekt/kuehl.wav"
"audio-button-response","195","567462","0.0-13.0-0.0-0.20","4d9c","","","","","","1846","0","audio_projekt/spielen2.wav"
"audio-button-response","196","570724","0.0-13.0-0.0-0.21","4d9c","","","","","","3163","0","audio_projekt/triefen1.wav"
"audio-button-response","197","573391","0.0-13.0-0.1-0.22","4d9c","","","","","","2666","0","audio_projekt/blueten.wav"
"audio-button-response","198","576359","0.0-13.0-0.1-0.23","4d9c","","","","","","2967","0","audio_projekt/beten1.wav"
"audio-button-response","199","577348","0.0-13.0-0.1-0.24","4d9c","","","","","","989","0","audio_projekt/tuer.wav"
"audio-button-response","200","578665","0.0-13.0-0.1-0.25","4d9c","","","","","","1316","0","audio_projekt/bluten.wav"
"audio-button-response","201","579787","0.0-13.0-0.1-0.26","4d9c","","","","","","1121","0","audio_projekt/buehne.wav"
"audio-button-response","202","581159","0.0-13.0-0.1-0.27","4d9c","","","","","","1372","0","audio_projekt/leder.wav"
"audio-button-response","203","582623","0.0-13.0-0.1-0.28","4d9c","","","","","","1463","0","audio_projekt/bieten1.wav"
"audio-button-response","204","584188","0.0-13.0-0.1-0.29","4d9c","","","","","","1564","0","audio_projekt/spulen.wav"
"audio-button-response","205","585856","0.0-13.0-0.1-0.30","4d9c","","","","","","1667","0","audio_projekt/biene.wav"
"audio-button-response","206","587171","0.0-13.0-0.1-0.31","4d9c","","","","","","1313","0","audio_projekt/segel.wav"
"audio-button-response","207","588606","0.0-13.0-0.1-0.32","4d9c","","","","","","1435","0","audio_projekt/stuhl.wav"
"audio-button-response","208","589722","0.0-13.0-0.1-0.33","4d9c","","","","","","1115","0","audio_projekt/tier.wav"
"audio-button-response","209","590986","0.0-13.0-0.1-0.34","4d9c","","","","","","1262","0","audio_projekt/treffen2.wav"
"audio-button-response","210","592866","0.0-13.0-0.1-0.35","4d9c","","","","","","1879","0","audio_projekt/stiel.wav"
"audio-button-response","211","594603","0.0-13.0-0.1-0.36","4d9c","","","","","","1736","0","audio_projekt/siegel.wav"
"audio-button-response","212","595909","0.0-13.0-0.1-0.37","4d9c","","","","","","1305","0","audio_projekt/tour.wav"
"audio-button-response","213","597444","0.0-13.0-0.1-0.38","4d9c","","","","","","1533","0","audio_projekt/lieder.wav"
"audio-button-response","214","598802","0.0-13.0-0.1-0.39","4d9c","","","","","","1356","0","audio_projekt/spuelen2.wav"
"audio-button-response","215","600168","0.0-13.0-0.1-0.40","4d9c","","","","","","1365","0","audio_projekt/kiel.wav"
"audio-button-response","216","601928","0.0-13.0-0.1-0.41","4d9c","","","","","","1758","0","audio_projekt/kuehl.wav"
"audio-button-response","217","603423","0.0-13.0-0.1-0.42","4d9c","","","","","","1494","0","audio_projekt/spielen2.wav"
"audio-button-response","218","604917","0.0-13.0-0.1-0.43","4d9c","","","","","","1492","0","audio_projekt/triefen1.wav"
"html-keyboard-response","219","612783","0.0-14.0","4d9c","","","","","","7866"," ","<h2>Teil 2: Identifikationsaufgabe: Vorbereitung 2</h2><div class=""myDiv""><p>Jetzt können Sie einen kurzen Probedurchlauf f&uuml;r diesen Teil des Experiments machen.</p><p>W&auml;hlen Sie das Bild aus, das das Wort darstellt. <ul><li>Dr&uuml;cken Sie die <b>Taste Q</b>, um das <b>linke</b> Bild auszuw&auml;hlen. Dr&uuml;cken Sie die <b>Taste P</b>, um das <b>rechte</b> Bild auszuw&auml;hlen.</li> <li>Sie haben 5 Sekunden Zeit, um sich f&uuml;r eines der Bilder zu entscheiden. </li><li>Bitte warten Sie, bis Sie <b>das ganze Wort gehört haben</b>, bevor Sie eine Taste drücken.</li></ul></p><p>Dr&uuml;cken Sie eine beliebige Taste, um den Probedurchlauf anzufangen.</p>"
"audio-keyboard-response","220","613504","0.0-15.0-0.0","4d9c","","","","","","null","null","audio_projekt/treffen2.wav"
"image-keyboard-response","221","614805","0.0-15.0-1.0","4d9c","","","","","","1299","p","pics/scaled/triefen_treffen.png"
"audio-keyboard-response","222","616185","0.0-15.0-0.1","4d9c","","","","","","null","null","audio_projekt/beten1.wav"
"image-keyboard-response","223","617096","0.0-15.0-1.1","4d9c","","","","","","910","p","pics/scaled/bieten_beten.jpg"
"html-keyboard-response","224","619494","0.0-16.0","4d9c","","","","","","1586"," ","<h2>Teil 2: Identifikationsaufgabe</h2><p>Jetzt sind Sie darauf vorbereitet, die Identifikationsaufgabe auszuführen.</p><p>Sind Sie bereit? Dann dr&uuml;cken Sie eine beliebige Taste, um anzufangen.</p>"
"audio-keyboard-response","225","620145","0.0-17.0-0.0","4d9c","","","","","","null","null","audio_projekt/lieder.wav"
"image-keyboard-response","226","621055","0.0-17.0-1.0","4d9c","","","","","","908","p","pics/scaled/lieder_leder.jpg"
"audio-keyboard-response","227","622765","0.0-17.0-0.1","4d9c","","","","","","null","null","audio_projekt/spielen2.wav"
"image-keyboard-response","228","622997","0.0-17.0-1.1","4d9c","","","","","","231","p","pics/scaled/spielen_spulen.jpg"
"audio-keyboard-response","229","624705","0.0-17.0-0.2","4d9c","","","","","","null","null","audio_projekt/spielen2.wav"
"image-keyboard-response","230","624783","0.0-17.0-1.2","4d9c","","","","","","77","p","pics/scaled/spielen_spulen.jpg"
"audio-keyboard-response","231","626105","0.0-17.0-0.3","4d9c","","","","","","null","null","audio_projekt/tuer.wav"
"image-keyboard-response","232","626882","0.0-17.0-1.3","4d9c","","","","","","776","p","pics/scaled/tuer_tour.jpg"
"audio-keyboard-response","233","628325","0.0-17.0-0.4","4d9c","","","","","","null","null","audio_projekt/kiel.wav"
"image-keyboard-response","234","628918","0.0-17.0-1.4","4d9c","","","","","","592","q","pics/scaled/kiel_kuehl.jpg"
"audio-keyboard-response","235","630605","0.0-17.0-0.5","4d9c","","","","","","null","null","audio_projekt/spuelen2.wav"
"image-keyboard-response","236","631471","0.0-17.0-1.5","4d9c","","","","","","866","p","pics/scaled/spielen_spuelen.jpg"
"audio-keyboard-response","237","632765","0.0-17.0-0.6","4d9c","","","","","","null","null","audio_projekt/tuer.wav"
"image-keyboard-response","238","633898","0.0-17.0-1.6","4d9c","","","","","","1133","p","pics/scaled/tuer_tour.jpg"
"audio-keyboard-response","239","635205","0.0-17.0-0.7","4d9c","","","","","","null","null","audio_projekt/tier.wav"
"image-keyboard-response","240","635805","0.0-17.0-1.7","4d9c","","","","","","599","q","pics/scaled/tier_tour.jpg"
"audio-keyboard-response","241","637405","0.0-17.0-0.8","4d9c","","","","","","null","null","audio_projekt/stiel.wav"
"image-keyboard-response","242","638003","0.0-17.0-1.8","4d9c","","","","","","597","q","pics/scaled/stiel2_stuhl.jpg"
"audio-keyboard-response","243","639405","0.0-17.0-0.9","4d9c","","","","","","null","null","audio_projekt/bluten.wav"
"image-keyboard-response","244","639952","0.0-17.0-1.9","4d9c","","","","","","545","p","pics/scaled/bluten_blueten.jpg"
"audio-keyboard-response","245","641245","0.0-17.0-0.10","4d9c","","","","","","null","null","audio_projekt/tuer.wav"
"image-keyboard-response","246","641941","0.0-17.0-1.10","4d9c","","","","","","695","p","pics/scaled/tuer_tour.jpg"
"audio-keyboard-response","247","643505","0.0-17.0-0.11","4d9c","","","","","","null","null","audio_projekt/stiel.wav"
"image-keyboard-response","248","644376","0.0-17.0-1.11","4d9c","","","","","","870","q","pics/scaled/stiel2_stuhl.jpg"
"audio-keyboard-response","249","646085","0.0-17.0-0.12","4d9c","","","","","","null","null","audio_projekt/spulen.wav"
"image-keyboard-response","250","646204","0.0-17.0-1.12","4d9c","","","","","","117","q","pics/scaled/spielen_spulen.jpg"
"audio-keyboard-response","251","647565","0.0-17.0-0.13","4d9c","","","","","","null","null","audio_projekt/buehne.wav"
"image-keyboard-response","252","648175","0.0-17.0-1.13","4d9c","","","","","","609","p","pics/scaled/biene_buehne.png"
"audio-keyboard-response","253","649865","0.0-17.0-0.14","4d9c","","","","","","null","null","audio_projekt/spuelen2.wav"
"image-keyboard-response","254","650090","0.0-17.0-1.14","4d9c","","","","","","225","p","pics/scaled/spulen_spuelen.jpg"
"audio-keyboard-response","255","651405","0.0-17.0-0.15","4d9c","","","","","","null","null","audio_projekt/tour.wav"
"image-keyboard-response","256","651786","0.0-17.0-1.15","4d9c","","","","","","379","p","pics/scaled/tier_tour.jpg"
"audio-keyboard-response","257","653425","0.0-17.0-0.16","4d9c","","","","","","null","null","audio_projekt/segel.wav"
"image-keyboard-response","258","653550","0.0-17.0-1.16","4d9c","","","","","","124","q","pics/scaled/siegel_segel.jpg"
"audio-keyboard-response","259","655006","0.0-17.0-0.17","4d9c","","","","","","null","null","audio_projekt/leder.wav"
"image-keyboard-response","260","655251","0.0-17.0-1.17","4d9c","","","","","","244","q","pics/scaled/lieder_leder.jpg"
"audio-keyboard-response","261","656918","0.0-17.0-0.18","4d9c","","","","","","null","null","audio_projekt/spuelen2.wav"
"image-keyboard-response","262","656979","0.0-17.0-1.18","4d9c","","","","","","60","p","pics/scaled/spielen_spuelen.jpg"
"audio-keyboard-response","263","658398","0.0-17.0-0.19","4d9c","","","","","","null","null","audio_projekt/kiel.wav"
"image-keyboard-response","264","658586","0.0-17.0-1.19","4d9c","","","","","","187","q","pics/scaled/kiel_kuehl.jpg"
"audio-keyboard-response","265","660039","0.0-17.0-0.20","4d9c","","","","","","null","null","audio_projekt/lieder.wav"
"image-keyboard-response","266","660409","0.0-17.0-1.20","4d9c","","","","","","370","p","pics/scaled/lieder_leder.jpg"
"audio-keyboard-response","267","662039","0.0-17.0-0.21","4d9c","","","","","","null","null","audio_projekt/siegel.wav"
"image-keyboard-response","268","662268","0.0-17.0-1.21","4d9c","","","","","","228","p","pics/scaled/siegel_segel.jpg"
"audio-keyboard-response","269","664198","0.0-17.0-0.22","4d9c","","","","","","null","null","audio_projekt/spielen.wav"
"image-keyboard-response","270","664209","0.0-17.0-1.22","4d9c","","","","","","9","q","pics/scaled/spielen_spuelen.jpg"
"audio-keyboard-response","271","665518","0.0-17.0-0.23","4d9c","","","","","","null","null","audio_projekt/tier.wav"
"image-keyboard-response","272","665907","0.0-17.0-1.23","4d9c","","","","","","388","q","pics/scaled/tier_tour.jpg"
"audio-keyboard-response","273","667619","0.0-17.0-0.24","4d9c","","","","","","null","null","audio_projekt/spulen.wav"
"image-keyboard-response","274","667997","0.0-17.0-1.24","4d9c","","","","","","377","q","pics/scaled/spulen_spuelen.jpg"
"audio-keyboard-response","275","669458","0.0-17.0-0.25","4d9c","","","","","","null","null","audio_projekt/leder.wav"
"image-keyboard-response","276","669905","0.0-17.0-1.25","4d9c","","","","","","445","q","pics/scaled/lieder_leder.jpg"
"audio-keyboard-response","277","671499","0.0-17.0-0.26","4d9c","","","","","","null","null","audio_projekt/stiel.wav"
"image-keyboard-response","278","671852","0.0-17.0-1.26","4d9c","","","","","","352","q","pics/scaled/stiel2_stuhl.jpg"
"audio-keyboard-response","279","673197","0.0-17.0-0.27","4d9c","","","","","","null","null","audio_projekt/biene.wav"
"image-keyboard-response","280","673509","0.0-17.0-1.27","4d9c","","","","","","307","q","pics/scaled/biene_buehne.png"
"audio-keyboard-response","281","675217","0.0-17.0-0.28","4d9c","","","","","","null","null","audio_projekt/spulen.wav"
"image-keyboard-response","282","675233","0.0-17.0-1.28","4d9c","","","","","","15","q","pics/scaled/spielen_spulen.jpg"
"audio-keyboard-response","283","676817","0.0-17.0-0.29","4d9c","","","","","","null","null","audio_projekt/stuhl.wav"
"image-keyboard-response","284","677172","0.0-17.0-1.29","4d9c","","","","","","354","p","pics/scaled/stiel2_stuhl.jpg"
"audio-keyboard-response","285","678856","0.0-17.0-0.30","4d9c","","","","","","null","null","audio_projekt/spielen.wav"
"image-keyboard-response","286","679019","0.0-17.0-1.30","4d9c","","","","","","162","q","pics/scaled/spielen_spuelen.jpg"
"audio-keyboard-response","287","680457","0.0-17.0-0.31","4d9c","","","","","","null","null","audio_projekt/kuehl.wav"
"image-keyboard-response","288","680783","0.0-17.0-1.31","4d9c","","","","","","325","p","pics/scaled/kiel_kuehl.jpg"
"audio-keyboard-response","289","682496","0.0-17.0-0.32","4d9c","","","","","","null","null","audio_projekt/spulen.wav"
"image-keyboard-response","290","682978","0.0-17.0-1.32","4d9c","","","","","","480","q","pics/scaled/spulen_spuelen.jpg"
"audio-keyboard-response","291","684276","0.0-17.0-0.33","4d9c","","","","","","null","null","audio_projekt/tour.wav"
"image-keyboard-response","292","686516","0.0-17.0-1.33","4d9c","","","","","","2239","q","pics/scaled/tuer_tour.jpg"
"audio-keyboard-response","293","687816","0.0-17.0-0.34","4d9c","","","","","","null","null","audio_projekt/tour.wav"
"image-keyboard-response","294","688535","0.0-17.0-1.34","4d9c","","","","","","718","p","pics/scaled/tier_tour.jpg"
"audio-keyboard-response","295","689937","0.0-17.0-0.35","4d9c","","","","","","null","null","audio_projekt/blueten.wav"
"image-keyboard-response","296","692150","0.0-17.0-1.35","4d9c","","","","","","2212","p","pics/scaled/bluten_blueten.jpg"
"audio-keyboard-response","297","693857","0.0-17.0-0.36","4d9c","","","","","","null","null","audio_projekt/spielen2.wav"
"image-keyboard-response","298","694126","0.0-17.0-1.36","4d9c","","","","","","268","p","pics/scaled/spielen_spulen.jpg"
"audio-keyboard-response","299","695757","0.0-17.0-0.37","4d9c","","","","","","null","null","audio_projekt/siegel.wav"
"image-keyboard-response","300","696364","0.0-17.0-1.37","4d9c","","","","","","606","p","pics/scaled/siegel_segel.jpg"
"audio-keyboard-response","301","697737","0.0-17.0-0.38","4d9c","","","","","","null","null","audio_projekt/biene.wav"
"image-keyboard-response","302","698065","0.0-17.0-1.38","4d9c","","","","","","327","q","pics/scaled/biene_buehne.png"
"audio-keyboard-response","303","699676","0.0-17.0-0.39","4d9c","","","","","","null","null","audio_projekt/siegel.wav"
"image-keyboard-response","304","699937","0.0-17.0-1.39","4d9c","","","","","","260","p","pics/scaled/siegel_segel.jpg"
"audio-keyboard-response","305","701316","0.0-17.0-0.40","4d9c","","","","","","null","null","audio_projekt/blueten.wav"
"image-keyboard-response","306","702640","0.0-17.0-1.40","4d9c","","","","","","1322","p","pics/scaled/bluten_blueten.jpg"
"audio-keyboard-response","307","704337","0.0-17.0-0.41","4d9c","","","","","","null","null","audio_projekt/spuelen2.wav"
"image-keyboard-response","308","704572","0.0-17.0-1.41","4d9c","","","","","","235","q","pics/scaled/spulen_spuelen.jpg"
"audio-keyboard-response","309","706156","0.0-17.0-0.42","4d9c","","","","","","null","null","audio_projekt/stuhl.wav"
"image-keyboard-response","310","706471","0.0-17.0-1.42","4d9c","","","","","","314","p","pics/scaled/stiel2_stuhl.jpg"
"audio-keyboard-response","311","707776","0.0-17.0-0.43","4d9c","","","","","","null","null","audio_projekt/tier.wav"
"image-keyboard-response","312","708188","0.0-17.0-1.43","4d9c","","","","","","411","q","pics/scaled/tier_tour.jpg"
"audio-keyboard-response","313","709616","0.0-17.0-0.44","4d9c","","","","","","null","null","audio_projekt/kuehl.wav"
"image-keyboard-response","314","709896","0.0-17.0-1.44","4d9c","","","","","","278","p","pics/scaled/kiel_kuehl.jpg"
"audio-keyboard-response","315","711537","0.0-17.0-0.45","4d9c","","","","","","null","null","audio_projekt/segel.wav"
"image-keyboard-response","316","711539","0.0-17.0-1.45","4d9c","","","","","","1","q","pics/scaled/siegel_segel.jpg"
"audio-keyboard-response","317","712937","0.0-17.0-0.46","4d9c","","","","","","null","null","audio_projekt/bluten.wav"
"image-keyboard-response","318","713886","0.0-17.0-1.46","4d9c","","","","","","947","p","pics/scaled/bluten_blueten.jpg"
"audio-keyboard-response","319","715444","0.0-17.0-0.47","4d9c","","","","","","null","null","audio_projekt/stuhl.wav"
"image-keyboard-response","320","715688","0.0-17.0-1.47","4d9c","","","","","","243","p","pics/scaled/stiel2_stuhl.jpg"
"audio-keyboard-response","321","717123","0.0-17.0-0.48","4d9c","","","","","","null","null","audio_projekt/kuehl.wav"
"image-keyboard-response","322","717365","0.0-17.0-1.48","4d9c","","","","","","240","p","pics/scaled/kiel_kuehl.jpg"
"audio-keyboard-response","323","718744","0.0-17.0-0.49","4d9c","","","","","","null","null","audio_projekt/buehne.wav"
"image-keyboard-response","324","719007","0.0-17.0-1.49","4d9c","","","","","","262","p","pics/scaled/biene_buehne.png"
"audio-keyboard-response","325","720404","0.0-17.0-0.50","4d9c","","","","","","null","null","audio_projekt/bluten.wav"
"image-keyboard-response","326","721058","0.0-17.0-1.50","4d9c","","","","","","653","p","pics/scaled/bluten_blueten.jpg"
"audio-keyboard-response","327","722363","0.0-17.0-0.51","4d9c","","","","","","null","null","audio_projekt/tour.wav"
"image-keyboard-response","328","723047","0.0-17.0-1.51","4d9c","","","","","","682","p","pics/scaled/tier_tour.jpg"
"audio-keyboard-response","329","724484","0.0-17.0-0.52","4d9c","","","","","","null","null","audio_projekt/kiel.wav"
"image-keyboard-response","330","724714","0.0-17.0-1.52","4d9c","","","","","","229","q","pics/scaled/kiel_kuehl.jpg"
"audio-keyboard-response","331","726424","0.0-17.0-0.53","4d9c","","","","","","null","null","audio_projekt/spulen.wav"
"image-keyboard-response","332","726596","0.0-17.0-1.53","4d9c","","","","","","172","q","pics/scaled/spulen_spuelen.jpg"
"audio-keyboard-response","333","728044","0.0-17.0-0.54","4d9c","","","","","","null","null","audio_projekt/lieder.wav"
"image-keyboard-response","334","728314","0.0-17.0-1.54","4d9c","","","","","","269","p","pics/scaled/lieder_leder.jpg"
"audio-keyboard-response","335","730004","0.0-17.0-0.55","4d9c","","","","","","null","null","audio_projekt/spulen.wav"
"image-keyboard-response","336","730387","0.0-17.0-1.55","4d9c","","","","","","382","q","pics/scaled/spielen_spulen.jpg"
"audio-keyboard-response","337","731783","0.0-17.0-0.56","4d9c","","","","","","null","null","audio_projekt/blueten.wav"
"image-keyboard-response","338","732290","0.0-17.0-1.56","4d9c","","","","","","505","p","pics/scaled/bluten_blueten.jpg"
"audio-keyboard-response","339","733984","0.0-17.0-0.57","4d9c","","","","","","null","null","audio_projekt/spuelen2.wav"
"image-keyboard-response","340","734434","0.0-17.0-1.57","4d9c","","","","","","449","p","pics/scaled/spielen_spuelen.jpg"
"audio-keyboard-response","341","736064","0.0-17.0-0.58","4d9c","","","","","","null","null","audio_projekt/segel.wav"
"image-keyboard-response","342","736090","0.0-17.0-1.58","4d9c","","","","","","25","q","pics/scaled/siegel_segel.jpg"
"audio-keyboard-response","343","737383","0.0-17.0-0.59","4d9c","","","","","","null","null","audio_projekt/tour.wav"
"image-keyboard-response","344","738342","0.0-17.0-1.59","4d9c","","","","","","958","q","pics/scaled/tuer_tour.jpg"
"audio-keyboard-response","345","739724","0.0-17.0-0.60","4d9c","","","","","","null","null","audio_projekt/biene.wav"
"image-keyboard-response","346","740020","0.0-17.0-1.60","4d9c","","","","","","295","q","pics/scaled/biene_buehne.png"
"audio-keyboard-response","347","741324","0.0-17.0-0.61","4d9c","","","","","","null","null","audio_projekt/tour.wav"
"image-keyboard-response","348","742488","0.0-17.0-1.61","4d9c","","","","","","1163","q","pics/scaled/tuer_tour.jpg"
"audio-keyboard-response","349","744183","0.0-17.0-0.62","4d9c","","","","","","null","null","audio_projekt/spielen.wav"
"image-keyboard-response","350","744191","0.0-17.0-1.62","4d9c","","","","","","6","q","pics/scaled/spielen_spuelen.jpg"
"audio-keyboard-response","351","745643","0.0-17.0-0.63","4d9c","","","","","","null","null","audio_projekt/leder.wav"
"image-keyboard-response","352","745997","0.0-17.0-1.63","4d9c","","","","","","353","q","pics/scaled/lieder_leder.jpg"
"audio-keyboard-response","353","747664","0.0-17.0-0.64","4d9c","","","","","","null","null","audio_projekt/spuelen2.wav"
"image-keyboard-response","354","747665","0.0-17.0-1.64","4d9c","","","","","","0","q","pics/scaled/spulen_spuelen.jpg"
"audio-keyboard-response","355","749044","0.0-17.0-0.65","4d9c","","","","","","null","null","audio_projekt/buehne.wav"
"image-keyboard-response","356","749266","0.0-17.0-1.65","4d9c","","","","","","221","p","pics/scaled/biene_buehne.png"
