"trial_type","trial_index","time_elapsed","internal_node_id","subject","success","timeout","failed_images","failed_audio","failed_video","rt","response","stimulus"
"pavlovia","0","565","0.0-0.0","nw43","","","","","","","",""
"preload","1","565","0.0-1.0","nw43","true","false","[]","[]","[]","","",""
"survey-html-form","2","6842","0.0-2.0","nw43","","","","","","6277","{""code"":""66cdeab6f33b221365775640""}",""
"html-button-response","3","30842","0.0-3.0","nw43","","","","","","23998","0","<h2>Willkommen zum Experiment!</h2><div class=""myDiv""><p>Vielen Dank f&uuml;r Ihr Interesse an dieser Studie. Wir bitten Sie <strong>Kopfh&ouml;rer</strong> daf&uuml;r zu verwenden.</p></div><div><img src=""pics/headphones.png"" title=""Earbuds are also fine"" width=""250"" height=""200"" class=""center""></div><div class=""myDiv""><p>Das Experiment besteht aus zwei Teilen:</p> <ol> <li>Eine <strong>Unterscheidungsaufgabe,</strong> in der Sie zwei W&ouml;rter h&ouml;ren. Im Anschluss sollen Sie feststellen, ob diese W&ouml;rter gleich oder unterschiedlich sind;</li><li>Eine <strong>Identifikationsaufgabe,</strong> in der Sie nur ein Wort h&ouml;ren, wobei Ihnen aber zwei Bilder gezeigt werden. Ihre Aufgabe ist es, dasjenige Bild auszuw&auml;hlen, das das geh&ouml;rte Wort darstellt.</li> </ol><p>Wir bitten Sie um Ihre Zustimmung, bevor wir Ihre Daten sammeln und verwenden. Bitte klicken Sie auf den ""Start""-Button, um Ihre Zustimmung zu geben. Anschlie&szlig;end werden wir ein paar Fragen zu Ihren Sprachkenntnissen stellen. Danach k&ouml;nnen Sie das Experiment starten. </p></div>"
"survey-html-form","4","59738","0.0-4.0","nw43","","","","","","28894","{""zustimmung"":""on""}",""
"survey-html-form","5","125171","0.0-5.0","nw43","","","","","","65430","{""native"":""Englisch"",""AOL"":""11"",""LearnType1"":""classeshome"",""LearnType2"":""selflearn"",""LearnType3"":""lgeschool"",""LearnType4"":""uni"",""LearnType5"":""classesabroad"",""which"":""Als ich in Deutschland wohnte und studierte"",""AOA"":""21"",""timespent"":""12 Monaten""}",""
"audio-button-response","6","131065","0.0-6.0-0.0","nw43","","","","","","5782","0","audio_projekt/treffen1.wav"
"audio-button-response","7","132746","0.0-6.1-0.1","nw43","","","","","","1678","0","audio_projekt/treffen1.wav"
"audio-button-response","8","133865","0.0-6.2-0.2","nw43","","","","","","1118","0","audio_projekt/treffen1.wav"
"audio-button-response","9","135090","0.0-6.3-0.3","nw43","","","","","","1224","1","audio_projekt/treffen1.wav"
"html-keyboard-response","10","161273","0.0-7.0","nw43","","","","","","26181","q","<h2>Teil 1: Unterscheidungsaufgabe</h2><div class=""myDiv""><p>In diesem Teil des Experimentes werden Sie im Abstand von 1.5 Sekunden <b>zwei W&ouml;rter</b> h&ouml;ren.</p><ul><li>Ihre Aufgabe ist es, festzustellen, ob diese W&ouml;rter <b>gleich oder unterschiedlich</b> sind. Wenn es einen Unterschied gibt, besteht dieser nur aus einem Vokal. </li> <li>Dr&uuml;cken Sie die <b>Taste Q</b>, wenn die W&ouml;rter gleich sind. Dr&uuml;cken Sie die <b>Taste P</b>, wenn die W&ouml;rter unterschiedlich sind.</li><li>Bitte warten Sie, bis Sie <b>beide Wörter gehört haben</b>, bevor Sie eine Taste drücken. Aber Achtung: Sie haben nur <b>5 Sekunden</b>, um eine Option auszuw&auml;hlen! &Uuml;berlegen Sie daher bitte nicht zu lange.</li></ul><br><p>Dr&uuml;cken Sie eine beliebige Taste, um ein paar Testversuche zu machen.</p></ul></div>"
"audio-keyboard-response","11","164964","0.0-8.0-0.0","nw43","","","","","","null","null","audio_projekt/treffen1500triefen.wav"
"html-keyboard-response","12","165519","0.0-8.0-1.0","nw43","","","","","","553","p","<div></div>"
"audio-keyboard-response","13","169278","0.0-8.0-0.1","nw43","","","","","","null","null","audio_projekt/treffen1500treffen.wav"
"html-keyboard-response","14","169878","0.0-8.0-1.1","nw43","","","","","","598","q","<div></div>"
"html-keyboard-response","15","994922","0.0-9.0","nw43","","","","","","824236","p","<p>Gut! Jetzt f&auml;ngt der erste Teil des Experiments an. Dieser Teil dauert ca. 10 Minuten.</p><br><p>Bitte dr&uuml;cken Sie eine beliebige Taste, um fortzufahren.<div style=""height:30px; width:100%""></div>"
"audio-keyboard-response","16","998109","0.0-10.0-0.0","nw43","","","","","","null","null","audio_projekt/spulen1500spuelen.wav"
"html-keyboard-response","17","1000884","0.0-10.0-1.0","nw43","","","","","","2773","q","<div></div>"
"audio-keyboard-response","18","1004449","0.0-10.0-0.1","nw43","","","","","","null","null","audio_projekt/lieder1500leder.wav"
"html-keyboard-response","19","1005995","0.0-10.0-1.1","nw43","","","","","","1546","p","<div></div>"
"audio-keyboard-response","20","1009954","0.0-10.0-0.2","nw43","","","","","","null","null","audio_projekt/segel1500segel.wav"
"html-keyboard-response","21","1010515","0.0-10.0-1.2","nw43","","","","","","559","q","<div></div>"
"audio-keyboard-response","22","1014066","0.0-10.0-0.3","nw43","","","","","","null","null","audio_projekt/kuehl1500kuehl.wav"
"html-keyboard-response","23","1016852","0.0-10.0-1.3","nw43","","","","","","2786","p","<div></div>"
"audio-keyboard-response","24","1020808","0.0-10.0-0.4","nw43","","","","","","null","null","audio_projekt/segel1500siegel.wav"
"html-keyboard-response","25","1021097","0.0-10.0-1.4","nw43","","","","","","286","p","<div></div>"
"audio-keyboard-response","26","1024587","0.0-10.0-0.5","nw43","","","","","","null","null","audio_projekt/kuehl1500kuehl.wav"
"html-keyboard-response","27","1025026","0.0-10.0-1.5","nw43","","","","","","438","q","<div></div>"
"audio-keyboard-response","28","1028463","0.0-10.0-0.6","nw43","","","","","","null","null","audio_projekt/buehne1500biene.wav"
"html-keyboard-response","29","1028611","0.0-10.0-1.6","nw43","","","","","","147","p","<div></div>"
"audio-keyboard-response","30","1032725","0.0-10.0-0.7","nw43","","","","","","null","null","audio_projekt/spulen1500spielen.wav"
"html-keyboard-response","31","1032842","0.0-10.0-1.7","nw43","","","","","","115","p","<div></div>"
"audio-keyboard-response","32","1036338","0.0-10.0-0.8","nw43","","","","","","null","null","audio_projekt/blueten1500blueten.wav"
"html-keyboard-response","33","1038254","0.0-10.0-1.8","nw43","","","","","","1915","p","<div></div>"
"audio-keyboard-response","34","1042203","0.0-10.0-0.9","nw43","","","","","","null","null","audio_projekt/siegel1500siegel.wav"
"html-keyboard-response","35","1042916","0.0-10.0-1.9","nw43","","","","","","713","q","<div></div>"
"audio-keyboard-response","36","1046342","0.0-10.0-0.10","nw43","","","","","","null","null","audio_projekt/biene1500buehne.wav"
"html-keyboard-response","37","1046805","0.0-10.0-1.10","nw43","","","","","","462","p","<div></div>"
"audio-keyboard-response","38","1050304","0.0-10.0-0.11","nw43","","","","","","null","null","audio_projekt/bluten1500bluten.wav"
"html-keyboard-response","39","1050676","0.0-10.0-1.11","nw43","","","","","","371","q","<div></div>"
"audio-keyboard-response","40","1053979","0.0-10.0-0.12","nw43","","","","","","null","null","audio_projekt/tour1500tuer.wav"
"html-keyboard-response","41","1054915","0.0-10.0-1.12","nw43","","","","","","935","p","<div></div>"
"audio-keyboard-response","42","1058776","0.0-10.0-0.13","nw43","","","","","","null","null","audio_projekt/stuhl1500stiel.wav"
"html-keyboard-response","43","1058898","0.0-10.0-1.13","nw43","","","","","","121","p","<div></div>"
"audio-keyboard-response","44","1062441","0.0-10.0-0.14","nw43","","","","","","null","null","audio_projekt/kiel1500kiel.wav"
"html-keyboard-response","45","1063439","0.0-10.0-1.14","nw43","","","","","","997","q","<div></div>"
"audio-keyboard-response","46","1067027","0.0-10.0-0.15","nw43","","","","","","null","null","audio_projekt/leder1500lieder.wav"
"html-keyboard-response","47","1067205","0.0-10.0-1.15","nw43","","","","","","178","p","<div></div>"
"audio-keyboard-response","48","1071079","0.0-10.0-0.16","nw43","","","","","","null","null","audio_projekt/segel1500siegel.wav"
"html-keyboard-response","49","1071264","0.0-10.0-1.16","nw43","","","","","","184","p","<div></div>"
"audio-keyboard-response","50","1075131","0.0-10.0-0.17","nw43","","","","","","null","null","audio_projekt/stuhl1500stuhl.wav"
"html-keyboard-response","51","1075362","0.0-10.0-1.17","nw43","","","","","","231","q","<div></div>"
"audio-keyboard-response","52","1078912","0.0-10.0-0.18","nw43","","","","","","null","null","audio_projekt/kiel1500kuehl.wav"
"html-keyboard-response","53","1079299","0.0-10.0-1.18","nw43","","","","","","386","p","<div></div>"
"audio-keyboard-response","54","1082627","0.0-10.0-0.19","nw43","","","","","","null","null","audio_projekt/tour1500tuer.wav"
"html-keyboard-response","55","1083360","0.0-10.0-1.19","nw43","","","","","","730","p","<div></div>"
"audio-keyboard-response","56","1087219","0.0-10.0-0.20","nw43","","","","","","null","null","audio_projekt/stiel1500stuhl.wav"
"html-keyboard-response","57","1087516","0.0-10.0-1.20","nw43","","","","","","296","p","<div></div>"
"audio-keyboard-response","58","1091360","0.0-10.0-0.21","nw43","","","","","","null","null","audio_projekt/spulen1500spuelen.wav"
"html-keyboard-response","59","1092373","0.0-10.0-1.21","nw43","","","","","","1012","p","<div></div>"
"audio-keyboard-response","60","1095808","0.0-10.0-0.22","nw43","","","","","","null","null","audio_projekt/biene1500biene.wav"
"html-keyboard-response","61","1096584","0.0-10.0-1.22","nw43","","","","","","775","q","<div></div>"
"audio-keyboard-response","62","1100662","0.0-10.0-0.23","nw43","","","","","","null","null","audio_projekt/spuelen1500spielen.wav"
"html-keyboard-response","63","1100752","0.0-10.0-1.23","nw43","","","","","","88","p","<div></div>"
"audio-keyboard-response","64","1104867","0.0-10.0-0.24","nw43","","","","","","null","null","audio_projekt/spulen1500spulen.wav"
"html-keyboard-response","65","1104956","0.0-10.0-1.24","nw43","","","","","","87","q","<div></div>"
"audio-keyboard-response","66","1109023","0.0-10.0-0.25","nw43","","","","","","null","null","audio_projekt/spuelen1500spuelen.wav"
"html-keyboard-response","67","1109278","0.0-10.0-1.25","nw43","","","","","","254","q","<div></div>"
"audio-keyboard-response","68","1113066","0.0-10.0-0.26","nw43","","","","","","null","null","audio_projekt/stuhl1500stuhl.wav"
"html-keyboard-response","69","1113353","0.0-10.0-1.26","nw43","","","","","","286","q","<div></div>"
"audio-keyboard-response","70","1117428","0.0-10.0-0.27","nw43","","","","","","null","null","audio_projekt/spielen1500spielen.wav"
"html-keyboard-response","71","1117568","0.0-10.0-1.27","nw43","","","","","","139","q","<div></div>"
"audio-keyboard-response","72","1121004","0.0-10.0-0.28","nw43","","","","","","null","null","audio_projekt/buehne1500buehne.wav"
"html-keyboard-response","73","1121791","0.0-10.0-1.28","nw43","","","","","","787","q","<div></div>"
"audio-keyboard-response","74","1125683","0.0-10.0-0.29","nw43","","","","","","null","null","audio_projekt/segel1500segel.wav"
"html-keyboard-response","75","1126019","0.0-10.0-1.29","nw43","","","","","","335","q","<div></div>"
"audio-keyboard-response","76","1129883","0.0-10.0-0.30","nw43","","","","","","null","null","audio_projekt/stiel1500stiel.wav"
"html-keyboard-response","77","1130262","0.0-10.0-1.30","nw43","","","","","","378","q","<div></div>"
"audio-keyboard-response","78","1134271","0.0-10.0-0.31","nw43","","","","","","null","null","audio_projekt/spielen1500spielen.wav"
"html-keyboard-response","79","1134526","0.0-10.0-1.31","nw43","","","","","","254","q","<div></div>"
"audio-keyboard-response","80","1138059","0.0-10.0-0.32","nw43","","","","","","null","null","audio_projekt/leder1500lieder.wav"
"html-keyboard-response","81","1138799","0.0-10.0-1.32","nw43","","","","","","740","p","<div></div>"
"audio-keyboard-response","82","1142753","0.0-10.0-0.33","nw43","","","","","","null","null","audio_projekt/siegel1500segel.wav"
"html-keyboard-response","83","1144459","0.0-10.0-1.33","nw43","","","","","","1706","q","<div></div>"
"audio-keyboard-response","84","1148496","0.0-10.0-0.34","nw43","","","","","","null","null","audio_projekt/spulen1500spielen.wav"
"html-keyboard-response","85","1149802","0.0-10.0-1.34","nw43","","","","","","1307","p","<div></div>"
"audio-keyboard-response","86","1153356","0.0-10.0-0.35","nw43","","","","","","null","null","audio_projekt/kuehl1500kiel.wav"
"html-keyboard-response","87","1154038","0.0-10.0-1.35","nw43","","","","","","682","p","<div></div>"
"audio-keyboard-response","88","1158035","0.0-10.0-0.36","nw43","","","","","","null","null","audio_projekt/spuelen1500spuelen.wav"
"html-keyboard-response","89","1158500","0.0-10.0-1.36","nw43","","","","","","465","q","<div></div>"
"audio-keyboard-response","90","1162021","0.0-10.0-0.37","nw43","","","","","","null","null","audio_projekt/lieder1500leder.wav"
"html-keyboard-response","91","1162224","0.0-10.0-1.37","nw43","","","","","","202","p","<div></div>"
"audio-keyboard-response","92","1166100","0.0-10.0-0.38","nw43","","","","","","null","null","audio_projekt/siegel1500segel.wav"
"html-keyboard-response","93","1166203","0.0-10.0-1.38","nw43","","","","","","102","p","<div></div>"
"audio-keyboard-response","94","1170001","0.0-10.0-0.39","nw43","","","","","","null","null","audio_projekt/stiel1500stiel.wav"
"html-keyboard-response","95","1170159","0.0-10.0-1.39","nw43","","","","","","157","q","<div></div>"
"audio-keyboard-response","96","1173784","0.0-10.0-0.40","nw43","","","","","","null","null","audio_projekt/lieder1500lieder.wav"
"html-keyboard-response","97","1173815","0.0-10.0-1.40","nw43","","","","","","31","q","<div></div>"
"audio-keyboard-response","98","1177299","0.0-10.0-0.41","nw43","","","","","","null","null","audio_projekt/kuehl1500kiel.wav"
"html-keyboard-response","99","1177519","0.0-10.0-1.41","nw43","","","","","","219","p","<div></div>"
"audio-keyboard-response","100","1181012","0.0-10.0-0.42","nw43","","","","","","null","null","audio_projekt/blueten1500bluten.wav"
"html-keyboard-response","101","1182001","0.0-10.0-1.42","nw43","","","","","","988","q","<div></div>"
"audio-keyboard-response","102","1185487","0.0-10.0-0.43","nw43","","","","","","null","null","audio_projekt/kiel1500kiel.wav"
"html-keyboard-response","103","1185538","0.0-10.0-1.43","nw43","","","","","","51","q","<div></div>"
"audio-keyboard-response","104","1188948","0.0-10.0-0.44","nw43","","","","","","null","null","audio_projekt/blueten1500bluten.wav"
"html-keyboard-response","105","1189622","0.0-10.0-1.44","nw43","","","","","","674","q","<div></div>"
"audio-keyboard-response","106","1193746","0.0-10.0-0.45","nw43","","","","","","null","null","audio_projekt/spielen1500spulen.wav"
"html-keyboard-response","107","1194152","0.0-10.0-1.45","nw43","","","","","","404","p","<div></div>"
"audio-keyboard-response","108","1198149","0.0-10.0-0.46","nw43","","","","","","null","null","audio_projekt/spuelen1500spielen.wav"
"html-keyboard-response","109","1198943","0.0-10.0-1.46","nw43","","","","","","793","p","<div></div>"
"audio-keyboard-response","110","1202988","0.0-10.0-0.47","nw43","","","","","","null","null","audio_projekt/spulen1500spulen.wav"
"html-keyboard-response","111","1203242","0.0-10.0-1.47","nw43","","","","","","253","q","<div></div>"
"audio-keyboard-response","112","1206603","0.0-10.0-0.48","nw43","","","","","","null","null","audio_projekt/biene1500buehne.wav"
"html-keyboard-response","113","1206996","0.0-10.0-1.48","nw43","","","","","","392","p","<div></div>"
"audio-keyboard-response","114","1211075","0.0-10.0-0.49","nw43","","","","","","null","null","audio_projekt/spielen1500spuelen.wav"
"html-keyboard-response","115","1211462","0.0-10.0-1.49","nw43","","","","","","386","p","<div></div>"
"audio-keyboard-response","116","1214796","0.0-10.0-0.50","nw43","","","","","","null","null","audio_projekt/tuer1500tuer.wav"
"html-keyboard-response","117","1215174","0.0-10.0-1.50","nw43","","","","","","376","q","<div></div>"
"audio-keyboard-response","118","1218520","0.0-10.0-0.51","nw43","","","","","","null","null","audio_projekt/tour1500tier.wav"
"html-keyboard-response","119","1218725","0.0-10.0-1.51","nw43","","","","","","205","p","<div></div>"
"audio-keyboard-response","120","1222722","0.0-10.0-0.52","nw43","","","","","","null","null","audio_projekt/spielen1500spuelen.wav"
"html-keyboard-response","121","1222915","0.0-10.0-1.52","nw43","","","","","","193","p","<div></div>"
"audio-keyboard-response","122","1226708","0.0-10.0-0.53","nw43","","","","","","null","null","audio_projekt/stiel1500stuhl.wav"
"html-keyboard-response","123","1226820","0.0-10.0-1.53","nw43","","","","","","111","p","<div></div>"
"audio-keyboard-response","124","1230120","0.0-10.0-0.54","nw43","","","","","","null","null","audio_projekt/tier1500tier.wav"
"html-keyboard-response","125","1230368","0.0-10.0-1.54","nw43","","","","","","247","q","<div></div>"
"audio-keyboard-response","126","1233960","0.0-10.0-0.55","nw43","","","","","","null","null","audio_projekt/leder1500leder.wav"
"html-keyboard-response","127","1234505","0.0-10.0-1.55","nw43","","","","","","543","q","<div></div>"
"audio-keyboard-response","128","1237986","0.0-10.0-0.56","nw43","","","","","","null","null","audio_projekt/kiel1500kuehl.wav"
"html-keyboard-response","129","1239146","0.0-10.0-1.56","nw43","","","","","","1159","p","<div></div>"
"audio-keyboard-response","130","1242549","0.0-10.0-0.57","nw43","","","","","","null","null","audio_projekt/buehne1500biene.wav"
"html-keyboard-response","131","1243129","0.0-10.0-1.57","nw43","","","","","","580","p","<div></div>"
"audio-keyboard-response","132","1246440","0.0-10.0-0.58","nw43","","","","","","null","null","audio_projekt/tour1500tour.wav"
"html-keyboard-response","133","1246561","0.0-10.0-1.58","nw43","","","","","","120","q","<div></div>"
"audio-keyboard-response","134","1249918","0.0-10.0-0.59","nw43","","","","","","null","null","audio_projekt/biene1500biene.wav"
"html-keyboard-response","135","1250186","0.0-10.0-1.59","nw43","","","","","","268","q","<div></div>"
"audio-keyboard-response","136","1253485","0.0-10.0-0.60","nw43","","","","","","null","null","audio_projekt/tuer1500tour.wav"
"html-keyboard-response","137","1254107","0.0-10.0-1.60","nw43","","","","","","622","q","<div></div>"
"audio-keyboard-response","138","1257342","0.0-10.0-0.61","nw43","","","","","","null","null","audio_projekt/tour1500tier.wav"
"html-keyboard-response","139","1257732","0.0-10.0-1.61","nw43","","","","","","389","p","<div></div>"
"audio-keyboard-response","140","1261100","0.0-10.0-0.62","nw43","","","","","","null","null","audio_projekt/buehne1500buehne.wav"
"html-keyboard-response","141","1261326","0.0-10.0-1.62","nw43","","","","","","224","q","<div></div>"
"audio-keyboard-response","142","1264633","0.0-10.0-0.63","nw43","","","","","","null","null","audio_projekt/tier1500tour.wav"
"html-keyboard-response","143","1264893","0.0-10.0-1.63","nw43","","","","","","258","p","<div></div>"
"audio-keyboard-response","144","1268131","0.0-10.0-0.64","nw43","","","","","","null","null","audio_projekt/tour1500tour.wav"
"html-keyboard-response","145","1268365","0.0-10.0-1.64","nw43","","","","","","233","q","<div></div>"
"audio-keyboard-response","146","1272275","0.0-10.0-0.65","nw43","","","","","","null","null","audio_projekt/spuelen1500spulen.wav"
"html-keyboard-response","147","1273130","0.0-10.0-1.65","nw43","","","","","","854","p","<div></div>"
"audio-keyboard-response","148","1277173","0.0-10.0-0.66","nw43","","","","","","null","null","audio_projekt/spielen1500spulen.wav"
"html-keyboard-response","149","1277518","0.0-10.0-1.66","nw43","","","","","","343","p","<div></div>"
"audio-keyboard-response","150","1281050","0.0-10.0-0.67","nw43","","","","","","null","null","audio_projekt/leder1500leder.wav"
"html-keyboard-response","151","1283189","0.0-10.0-1.67","nw43","","","","","","2138","q","<div></div>"
"audio-keyboard-response","152","1286422","0.0-10.0-0.68","nw43","","","","","","null","null","audio_projekt/tuer1500tour.wav"
"html-keyboard-response","153","1287277","0.0-10.0-1.68","nw43","","","","","","855","q","<div></div>"
"audio-keyboard-response","154","1291123","0.0-10.0-0.69","nw43","","","","","","null","null","audio_projekt/spuelen1500spulen.wav"
"html-keyboard-response","155","1291547","0.0-10.0-1.69","nw43","","","","","","424","q","<div></div>"
"audio-keyboard-response","156","1295030","0.0-10.0-0.70","nw43","","","","","","null","null","audio_projekt/bluten1500bluten.wav"
"html-keyboard-response","157","1295140","0.0-10.0-1.70","nw43","","","","","","110","q","<div></div>"
"audio-keyboard-response","158","1298642","0.0-10.0-0.71","nw43","","","","","","null","null","audio_projekt/bluten1500blueten.wav"
"html-keyboard-response","159","1298953","0.0-10.0-1.71","nw43","","","","","","310","p","<div></div>"
"audio-keyboard-response","160","1302190","0.0-10.0-0.72","nw43","","","","","","null","null","audio_projekt/tuer1500tuer.wav"
"html-keyboard-response","161","1302623","0.0-10.0-1.72","nw43","","","","","","433","q","<div></div>"
"audio-keyboard-response","162","1306418","0.0-10.0-0.73","nw43","","","","","","null","null","audio_projekt/stuhl1500stiel.wav"
"html-keyboard-response","163","1306677","0.0-10.0-1.73","nw43","","","","","","258","p","<div></div>"
"audio-keyboard-response","164","1310199","0.0-10.0-0.74","nw43","","","","","","null","null","audio_projekt/lieder1500lieder.wav"
"html-keyboard-response","165","1310350","0.0-10.0-1.74","nw43","","","","","","152","q","<div></div>"
"audio-keyboard-response","166","1313581","0.0-10.0-0.75","nw43","","","","","","null","null","audio_projekt/tier1500tier.wav"
"html-keyboard-response","167","1314093","0.0-10.0-1.75","nw43","","","","","","511","q","<div></div>"
"audio-keyboard-response","168","1317516","0.0-10.0-0.76","nw43","","","","","","null","null","audio_projekt/blueten1500blueten.wav"
"html-keyboard-response","169","1317652","0.0-10.0-1.76","nw43","","","","","","136","q","<div></div>"
"audio-keyboard-response","170","1320888","0.0-10.0-0.77","nw43","","","","","","null","null","audio_projekt/tier1500tour.wav"
"html-keyboard-response","171","1321134","0.0-10.0-1.77","nw43","","","","","","245","p","<div></div>"
"audio-keyboard-response","172","1325015","0.0-10.0-0.78","nw43","","","","","","null","null","audio_projekt/siegel1500siegel.wav"
"html-keyboard-response","173","1325234","0.0-10.0-1.78","nw43","","","","","","218","q","<div></div>"
"audio-keyboard-response","174","1328654","0.0-10.0-0.79","nw43","","","","","","null","null","audio_projekt/bluten1500blueten.wav"
"html-keyboard-response","175","1329879","0.0-10.0-1.79","nw43","","","","","","1224","q","<div></div>"
"html-keyboard-response","176","1341563","0.0-11.0","nw43","","","","","","10881","p","<h2>Pause</h2><div class=""myDiv""><p>Gut gemacht! Jetzt k&ouml;nnen Sie eine kleine Pause machen.</p></div><div><img src=""pics/coffee.png"" title=""Machen Sie eine Pause..."" width=""150"" height=""150"" class=""center""></div><div style=""height:20px; width:100%""></div><p>Wenn Sie bereit sind, dr&uuml;cken Sie eine beliebige Taste, um fortzufahren.</p>"
"html-keyboard-response","177","1347442","0.0-12.0","nw43","","","","","","5877","p","<h2>Teil 2: Identifikationsaufgabe: Vorbereitung 1</h2><div class=""myDiv""><p>In diesem Teil des Experimentes werden Sie nur ein Wort h&ouml;ren. </p><p>Anschlie&szlig;end werden zwei Bilder gezeigt. W&auml;hlen Sie das Bild aus, das das Wort darstellt.</p><p>Bevor die Aufgabe beginnt, werden die Bilder mit den entsprechenden W&ouml;rtern angezeigt. Sie werden jedes Bild zweimal sehen.</p><p>Dr&uuml;cken Sie bitte eine beliebige Taste, um die Bilder zu sehen.</p>"
"audio-button-response","178","1356393","0.0-13.0-0.0-0.0","nw43","","","","","","8873","0","audio_projekt/blueten.wav"
"audio-button-response","179","1361081","0.0-13.0-0.0-0.1","nw43","","","","","","4607","0","audio_projekt/beten1.wav"
"audio-button-response","180","1362225","0.0-13.0-0.0-0.2","nw43","","","","","","1078","0","audio_projekt/tuer.wav"
"audio-button-response","181","1363785","0.0-13.0-0.0-0.3","nw43","","","","","","1487","0","audio_projekt/bluten.wav"
"audio-button-response","182","1364969","0.0-13.0-0.0-0.4","nw43","","","","","","1105","0","audio_projekt/buehne.wav"
"audio-button-response","183","1366202","0.0-13.0-0.0-0.5","nw43","","","","","","1157","0","audio_projekt/leder.wav"
"audio-button-response","184","1368449","0.0-13.0-0.0-0.6","nw43","","","","","","2171","0","audio_projekt/bieten1.wav"
"audio-button-response","185","1370617","0.0-13.0-0.0-0.7","nw43","","","","","","2092","0","audio_projekt/spulen.wav"
"audio-button-response","186","1371785","0.0-13.0-0.0-0.8","nw43","","","","","","1093","0","audio_projekt/biene.wav"
"audio-button-response","187","1372857","0.0-13.0-0.0-0.9","nw43","","","","","","992","0","audio_projekt/segel.wav"
"audio-button-response","188","1374113","0.0-13.0-0.0-0.10","nw43","","","","","","1182","0","audio_projekt/stuhl.wav"
"audio-button-response","189","1375257","0.0-13.0-0.0-0.11","nw43","","","","","","1081","0","audio_projekt/tier.wav"
"audio-button-response","190","1376355","0.0-13.0-0.0-0.12","nw43","","","","","","1015","0","audio_projekt/treffen2.wav"
"audio-button-response","191","1378345","0.0-13.0-0.0-0.13","nw43","","","","","","1910","0","audio_projekt/stiel.wav"
"audio-button-response","192","1380593","0.0-13.0-0.0-0.14","nw43","","","","","","2172","0","audio_projekt/siegel.wav"
"audio-button-response","193","1382762","0.0-13.0-0.0-0.15","nw43","","","","","","2111","0","audio_projekt/tour.wav"
"audio-button-response","194","1383970","0.0-13.0-0.0-0.16","nw43","","","","","","1132","0","audio_projekt/lieder.wav"
"audio-button-response","195","1385673","0.0-13.0-0.0-0.17","nw43","","","","","","1624","0","audio_projekt/spuelen2.wav"
"audio-button-response","196","1388673","0.0-13.0-0.0-0.18","nw43","","","","","","2927","0","audio_projekt/kiel.wav"
"audio-button-response","197","1390113","0.0-13.0-0.0-0.19","nw43","","","","","","1362","0","audio_projekt/kuehl.wav"
"audio-button-response","198","1391546","0.0-13.0-0.0-0.20","nw43","","","","","","1348","0","audio_projekt/spielen2.wav"
"audio-button-response","199","1393833","0.0-13.0-0.0-0.21","nw43","","","","","","2211","0","audio_projekt/triefen1.wav"
"audio-button-response","200","1396033","0.0-13.0-0.1-0.22","nw43","","","","","","2199","0","audio_projekt/blueten.wav"
"audio-button-response","201","1398937","0.0-13.0-0.1-0.23","nw43","","","","","","2902","0","audio_projekt/beten1.wav"
"audio-button-response","202","1399793","0.0-13.0-0.1-0.24","nw43","","","","","","855","0","audio_projekt/tuer.wav"
"audio-button-response","203","1400573","0.0-13.0-0.1-0.25","nw43","","","","","","779","0","audio_projekt/bluten.wav"
"audio-button-response","204","1401521","0.0-13.0-0.1-0.26","nw43","","","","","","947","0","audio_projekt/buehne.wav"
"audio-button-response","205","1402456","0.0-13.0-0.1-0.27","nw43","","","","","","935","0","audio_projekt/leder.wav"
"audio-button-response","206","1403664","0.0-13.0-0.1-0.28","nw43","","","","","","1207","0","audio_projekt/bieten1.wav"
"audio-button-response","207","1405113","0.0-13.0-0.1-0.29","nw43","","","","","","1447","0","audio_projekt/spulen.wav"
"audio-button-response","208","1406025","0.0-13.0-0.1-0.30","nw43","","","","","","911","0","audio_projekt/biene.wav"
"audio-button-response","209","1407096","0.0-13.0-0.1-0.31","nw43","","","","","","1070","0","audio_projekt/segel.wav"
"audio-button-response","210","1408673","0.0-13.0-0.1-0.32","nw43","","","","","","1575","0","audio_projekt/stuhl.wav"
"audio-button-response","211","1409770","0.0-13.0-0.1-0.33","nw43","","","","","","1096","0","audio_projekt/tier.wav"
"audio-button-response","212","1410705","0.0-13.0-0.1-0.34","nw43","","","","","","935","0","audio_projekt/treffen2.wav"
"audio-button-response","213","1411545","0.0-13.0-0.1-0.35","nw43","","","","","","839","0","audio_projekt/stiel.wav"
"audio-button-response","214","1412441","0.0-13.0-0.1-0.36","nw43","","","","","","895","0","audio_projekt/siegel.wav"
"audio-button-response","215","1413353","0.0-13.0-0.1-0.37","nw43","","","","","","910","0","audio_projekt/tour.wav"
"audio-button-response","216","1414345","0.0-13.0-0.1-0.38","nw43","","","","","","991","0","audio_projekt/lieder.wav"
"audio-button-response","217","1416937","0.0-13.0-0.1-0.39","nw43","","","","","","2591","0","audio_projekt/spuelen2.wav"
"audio-button-response","218","1417952","0.0-13.0-0.1-0.40","nw43","","","","","","1015","0","audio_projekt/kiel.wav"
"audio-button-response","219","1419273","0.0-13.0-0.1-0.41","nw43","","","","","","1319","0","audio_projekt/kuehl.wav"
"audio-button-response","220","1420577","0.0-13.0-0.1-0.42","nw43","","","","","","1302","0","audio_projekt/spielen2.wav"
"audio-button-response","221","1421833","0.0-13.0-0.1-0.43","nw43","","","","","","1256","0","audio_projekt/triefen1.wav"
"html-keyboard-response","222","1431767","0.0-14.0","nw43","","","","","","9934","q","<h2>Teil 2: Identifikationsaufgabe: Vorbereitung 2</h2><div class=""myDiv""><p>Jetzt können Sie einen kurzen Probedurchlauf f&uuml;r diesen Teil des Experiments machen.</p><p>W&auml;hlen Sie das Bild aus, das das Wort darstellt. <ul><li>Dr&uuml;cken Sie die <b>Taste Q</b>, um das <b>linke</b> Bild auszuw&auml;hlen. Dr&uuml;cken Sie die <b>Taste P</b>, um das <b>rechte</b> Bild auszuw&auml;hlen.</li> <li>Sie haben 5 Sekunden Zeit, um sich f&uuml;r eines der Bilder zu entscheiden. </li><li>Bitte warten Sie, bis Sie <b>das ganze Wort gehört haben</b>, bevor Sie eine Taste drücken.</li></ul></p><p>Dr&uuml;cken Sie eine beliebige Taste, um den Probedurchlauf anzufangen.</p>"
"audio-keyboard-response","223","1432929","0.0-15.0-0.0","nw43","","","","","","null","null","audio_projekt/treffen2.wav"
"image-keyboard-response","224","1433289","0.0-15.0-1.0","nw43","","","","","","359","p","pics/scaled/triefen_treffen.png"
"audio-keyboard-response","225","1434683","0.0-15.0-0.1","nw43","","","","","","null","null","audio_projekt/beten1.wav"
"image-keyboard-response","226","1435880","0.0-15.0-1.1","nw43","","","","","","1197","p","pics/scaled/bieten_beten.jpg"
"html-keyboard-response","227","1438587","0.0-16.0","nw43","","","","","","1894","q","<h2>Teil 2: Identifikationsaufgabe</h2><p>Jetzt sind Sie darauf vorbereitet, die Identifikationsaufgabe auszuführen.</p><p>Sind Sie bereit? Dann dr&uuml;cken Sie eine beliebige Taste, um anzufangen.</p>"
"audio-keyboard-response","228","1439213","0.0-17.0-0.0","nw43","","","","","","null","null","audio_projekt/kiel.wav"
"image-keyboard-response","229","1440134","0.0-17.0-1.0","nw43","","","","","","921","q","pics/scaled/kiel_kuehl.jpg"
"audio-keyboard-response","230","1441568","0.0-17.0-0.1","nw43","","","","","","null","null","audio_projekt/kuehl.wav"
"image-keyboard-response","231","1441866","0.0-17.0-1.1","nw43","","","","","","296","p","pics/scaled/kiel_kuehl.jpg"
"audio-keyboard-response","232","1443310","0.0-17.0-0.2","nw43","","","","","","null","null","audio_projekt/leder.wav"
"image-keyboard-response","233","1444438","0.0-17.0-1.2","nw43","","","","","","1127","q","pics/scaled/lieder_leder.jpg"
"audio-keyboard-response","234","1445914","0.0-17.0-0.3","nw43","","","","","","null","null","audio_projekt/leder.wav"
"image-keyboard-response","235","1446127","0.0-17.0-1.3","nw43","","","","","","212","q","pics/scaled/lieder_leder.jpg"
"audio-keyboard-response","236","1447707","0.0-17.0-0.4","nw43","","","","","","null","null","audio_projekt/stuhl.wav"
"image-keyboard-response","237","1448071","0.0-17.0-1.4","nw43","","","","","","363","p","pics/scaled/stiel2_stuhl.jpg"
"audio-keyboard-response","238","1449790","0.0-17.0-0.5","nw43","","","","","","null","null","audio_projekt/spulen.wav"
"image-keyboard-response","239","1451708","0.0-17.0-1.5","nw43","","","","","","1917","q","pics/scaled/spulen_spuelen.jpg"
"audio-keyboard-response","240","1453471","0.0-17.0-0.6","nw43","","","","","","null","null","audio_projekt/spielen.wav"
"image-keyboard-response","241","1453971","0.0-17.0-1.6","nw43","","","","","","499","q","pics/scaled/spielen_spuelen.jpg"
"audio-keyboard-response","242","1455419","0.0-17.0-0.7","nw43","","","","","","null","null","audio_projekt/lieder.wav"
"image-keyboard-response","243","1455898","0.0-17.0-1.7","nw43","","","","","","478","p","pics/scaled/lieder_leder.jpg"
"audio-keyboard-response","244","1457396","0.0-17.0-0.8","nw43","","","","","","null","null","audio_projekt/kiel.wav"
"image-keyboard-response","245","1457899","0.0-17.0-1.8","nw43","","","","","","502","q","pics/scaled/kiel_kuehl.jpg"
"audio-keyboard-response","246","1459525","0.0-17.0-0.9","nw43","","","","","","null","null","audio_projekt/segel.wav"
"image-keyboard-response","247","1460072","0.0-17.0-1.9","nw43","","","","","","546","q","pics/scaled/siegel_segel.jpg"
"audio-keyboard-response","248","1461777","0.0-17.0-0.10","nw43","","","","","","null","null","audio_projekt/spulen.wav"
"image-keyboard-response","249","1462057","0.0-17.0-1.10","nw43","","","","","","279","q","pics/scaled/spielen_spulen.jpg"
"audio-keyboard-response","250","1463472","0.0-17.0-0.11","nw43","","","","","","null","null","audio_projekt/bluten.wav"
"image-keyboard-response","251","1464078","0.0-17.0-1.11","nw43","","","","","","606","p","pics/scaled/bluten_blueten.jpg"
"audio-keyboard-response","252","1465384","0.0-17.0-0.12","nw43","","","","","","null","null","audio_projekt/tour.wav"
"image-keyboard-response","253","1466188","0.0-17.0-1.12","nw43","","","","","","802","p","pics/scaled/tier_tour.jpg"
"audio-keyboard-response","254","1467628","0.0-17.0-0.13","nw43","","","","","","null","null","audio_projekt/blueten.wav"
"image-keyboard-response","255","1468327","0.0-17.0-1.13","nw43","","","","","","699","p","pics/scaled/bluten_blueten.jpg"
"audio-keyboard-response","256","1469692","0.0-17.0-0.14","nw43","","","","","","null","null","audio_projekt/biene.wav"
"image-keyboard-response","257","1470197","0.0-17.0-1.14","nw43","","","","","","504","q","pics/scaled/biene_buehne.png"
"audio-keyboard-response","258","1471639","0.0-17.0-0.15","nw43","","","","","","null","null","audio_projekt/buehne.wav"
"image-keyboard-response","259","1471955","0.0-17.0-1.15","nw43","","","","","","314","p","pics/scaled/biene_buehne.png"
"audio-keyboard-response","260","1473528","0.0-17.0-0.16","nw43","","","","","","null","null","audio_projekt/stiel.wav"
"image-keyboard-response","261","1474028","0.0-17.0-1.16","nw43","","","","","","499","q","pics/scaled/stiel2_stuhl.jpg"
"audio-keyboard-response","262","1475747","0.0-17.0-0.17","nw43","","","","","","null","null","audio_projekt/spulen.wav"
"image-keyboard-response","263","1476752","0.0-17.0-1.17","nw43","","","","","","1004","q","pics/scaled/spulen_spuelen.jpg"
"audio-keyboard-response","264","1478388","0.0-17.0-0.18","nw43","","","","","","null","null","audio_projekt/siegel.wav"
"image-keyboard-response","265","1479179","0.0-17.0-1.18","nw43","","","","","","789","p","pics/scaled/siegel_segel.jpg"
"audio-keyboard-response","266","1480886","0.0-17.0-0.19","nw43","","","","","","null","null","audio_projekt/spielen2.wav"
"image-keyboard-response","267","1481211","0.0-17.0-1.19","nw43","","","","","","323","p","pics/scaled/spielen_spulen.jpg"
"audio-keyboard-response","268","1482633","0.0-17.0-0.20","nw43","","","","","","null","null","audio_projekt/kuehl.wav"
"image-keyboard-response","269","1483081","0.0-17.0-1.20","nw43","","","","","","447","p","pics/scaled/kiel_kuehl.jpg"
"audio-keyboard-response","270","1484653","0.0-17.0-0.21","nw43","","","","","","null","null","audio_projekt/stiel.wav"
"image-keyboard-response","271","1484789","0.0-17.0-1.21","nw43","","","","","","134","q","pics/scaled/stiel2_stuhl.jpg"
"audio-keyboard-response","272","1486164","0.0-17.0-0.22","nw43","","","","","","null","null","audio_projekt/buehne.wav"
"image-keyboard-response","273","1486691","0.0-17.0-1.22","nw43","","","","","","526","p","pics/scaled/biene_buehne.png"
"audio-keyboard-response","274","1488398","0.0-17.0-0.23","nw43","","","","","","null","null","audio_projekt/spulen.wav"
"image-keyboard-response","275","1489133","0.0-17.0-1.23","nw43","","","","","","734","q","pics/scaled/spielen_spulen.jpg"
"audio-keyboard-response","276","1490506","0.0-17.0-0.24","nw43","","","","","","null","null","audio_projekt/buehne.wav"
"image-keyboard-response","277","1491308","0.0-17.0-1.24","nw43","","","","","","802","p","pics/scaled/biene_buehne.png"
"audio-keyboard-response","278","1492948","0.0-17.0-0.25","nw43","","","","","","null","null","audio_projekt/stuhl.wav"
"image-keyboard-response","279","1493051","0.0-17.0-1.25","nw43","","","","","","102","p","pics/scaled/stiel2_stuhl.jpg"
"audio-keyboard-response","280","1494502","0.0-17.0-0.26","nw43","","","","","","null","null","audio_projekt/leder.wav"
"image-keyboard-response","281","1494946","0.0-17.0-1.26","nw43","","","","","","444","q","pics/scaled/lieder_leder.jpg"
"audio-keyboard-response","282","1496658","0.0-17.0-0.27","nw43","","","","","","null","null","audio_projekt/spielen2.wav"
"image-keyboard-response","283","1496766","0.0-17.0-1.27","nw43","","","","","","107","p","pics/scaled/spielen_spulen.jpg"
"audio-keyboard-response","284","1498188","0.0-17.0-0.28","nw43","","","","","","null","null","audio_projekt/kuehl.wav"
"image-keyboard-response","285","1498645","0.0-17.0-1.28","nw43","","","","","","456","p","pics/scaled/kiel_kuehl.jpg"
"audio-keyboard-response","286","1500369","0.0-17.0-0.29","nw43","","","","","","null","null","audio_projekt/spuelen2.wav"
"image-keyboard-response","287","1503255","0.0-17.0-1.29","nw43","","","","","","2886","p","pics/scaled/spulen_spuelen.jpg"
"audio-keyboard-response","288","1504550","0.0-17.0-0.30","nw43","","","","","","null","null","audio_projekt/tour.wav"
"image-keyboard-response","289","1505225","0.0-17.0-1.30","nw43","","","","","","674","p","pics/scaled/tier_tour.jpg"
"audio-keyboard-response","290","1506800","0.0-17.0-0.31","nw43","","","","","","null","null","audio_projekt/stuhl.wav"
"image-keyboard-response","291","1507050","0.0-17.0-1.31","nw43","","","","","","250","p","pics/scaled/stiel2_stuhl.jpg"
"audio-keyboard-response","292","1508631","0.0-17.0-0.32","nw43","","","","","","null","null","audio_projekt/stiel.wav"
"image-keyboard-response","293","1508812","0.0-17.0-1.32","nw43","","","","","","181","q","pics/scaled/stiel2_stuhl.jpg"
"audio-keyboard-response","294","1510518","0.0-17.0-0.33","nw43","","","","","","null","null","audio_projekt/spielen2.wav"
"image-keyboard-response","295","1511941","0.0-17.0-1.33","nw43","","","","","","1423","p","pics/scaled/spielen_spulen.jpg"
"audio-keyboard-response","296","1513240","0.0-17.0-0.34","nw43","","","","","","null","null","audio_projekt/tier.wav"
"image-keyboard-response","297","1513992","0.0-17.0-1.34","nw43","","","","","","750","q","pics/scaled/tier_tour.jpg"
"audio-keyboard-response","298","1515425","0.0-17.0-0.35","nw43","","","","","","null","null","audio_projekt/kiel.wav"
"image-keyboard-response","299","1516149","0.0-17.0-1.35","nw43","","","","","","722","q","pics/scaled/kiel_kuehl.jpg"
"audio-keyboard-response","300","1517836","0.0-17.0-0.36","nw43","","","","","","null","null","audio_projekt/spuelen2.wav"
"image-keyboard-response","301","1518472","0.0-17.0-1.36","nw43","","","","","","635","p","pics/scaled/spielen_spuelen.jpg"
"audio-keyboard-response","302","1519925","0.0-17.0-0.37","nw43","","","","","","null","null","audio_projekt/lieder.wav"
"image-keyboard-response","303","1520447","0.0-17.0-1.37","nw43","","","","","","521","p","pics/scaled/lieder_leder.jpg"
"audio-keyboard-response","304","1522146","0.0-17.0-0.38","nw43","","","","","","null","null","audio_projekt/spuelen2.wav"
"image-keyboard-response","305","1523114","0.0-17.0-1.38","nw43","","","","","","968","p","pics/scaled/spielen_spuelen.jpg"
"audio-keyboard-response","306","1524498","0.0-17.0-0.39","nw43","","","","","","null","null","audio_projekt/tuer.wav"
"image-keyboard-response","307","1525254","0.0-17.0-1.39","nw43","","","","","","754","p","pics/scaled/tuer_tour.jpg"
"audio-keyboard-response","308","1527039","0.0-17.0-0.40","nw43","","","","","","null","null","audio_projekt/spielen.wav"
"image-keyboard-response","309","1527228","0.0-17.0-1.40","nw43","","","","","","187","q","pics/scaled/spielen_spuelen.jpg"
"audio-keyboard-response","310","1528923","0.0-17.0-0.41","nw43","","","","","","null","null","audio_projekt/spuelen2.wav"
"image-keyboard-response","311","1531904","0.0-17.0-1.41","nw43","","","","","","2980","p","pics/scaled/spulen_spuelen.jpg"
"audio-keyboard-response","312","1533202","0.0-17.0-0.42","nw43","","","","","","null","null","audio_projekt/tour.wav"
"image-keyboard-response","313","1536094","0.0-17.0-1.42","nw43","","","","","","2890","q","pics/scaled/tuer_tour.jpg"
"audio-keyboard-response","314","1537394","0.0-17.0-0.43","nw43","","","","","","null","null","audio_projekt/tour.wav"
"image-keyboard-response","315","1538131","0.0-17.0-1.43","nw43","","","","","","736","q","pics/scaled/tuer_tour.jpg"
"audio-keyboard-response","316","1539424","0.0-17.0-0.44","nw43","","","","","","null","null","audio_projekt/tier.wav"
"image-keyboard-response","317","1540049","0.0-17.0-1.44","nw43","","","","","","624","q","pics/scaled/tier_tour.jpg"
"audio-keyboard-response","318","1541676","0.0-17.0-0.45","nw43","","","","","","null","null","audio_projekt/siegel.wav"
"image-keyboard-response","319","1542668","0.0-17.0-1.45","nw43","","","","","","991","p","pics/scaled/siegel_segel.jpg"
"audio-keyboard-response","320","1544387","0.0-17.0-0.46","nw43","","","","","","null","null","audio_projekt/spulen.wav"
"image-keyboard-response","321","1544647","0.0-17.0-1.46","nw43","","","","","","257","q","pics/scaled/spielen_spulen.jpg"
"audio-keyboard-response","322","1546090","0.0-17.0-0.47","nw43","","","","","","null","null","audio_projekt/bluten.wav"
"image-keyboard-response","323","1546458","0.0-17.0-1.47","nw43","","","","","","367","p","pics/scaled/bluten_blueten.jpg"
"audio-keyboard-response","324","1547750","0.0-17.0-0.48","nw43","","","","","","null","null","audio_projekt/tuer.wav"
"image-keyboard-response","325","1548114","0.0-17.0-1.48","nw43","","","","","","364","p","pics/scaled/tuer_tour.jpg"
"audio-keyboard-response","326","1549748","0.0-17.0-0.49","nw43","","","","","","null","null","audio_projekt/siegel.wav"
"image-keyboard-response","327","1550373","0.0-17.0-1.49","nw43","","","","","","624","p","pics/scaled/siegel_segel.jpg"
"audio-keyboard-response","328","1551999","0.0-17.0-0.50","nw43","","","","","","null","null","audio_projekt/segel.wav"
"image-keyboard-response","329","1552427","0.0-17.0-1.50","nw43","","","","","","426","q","pics/scaled/siegel_segel.jpg"
"audio-keyboard-response","330","1554059","0.0-17.0-0.51","nw43","","","","","","null","null","audio_projekt/segel.wav"
"image-keyboard-response","331","1554316","0.0-17.0-1.51","nw43","","","","","","256","q","pics/scaled/siegel_segel.jpg"
"audio-keyboard-response","332","1555686","0.0-17.0-0.52","nw43","","","","","","null","null","audio_projekt/biene.wav"
"image-keyboard-response","333","1556141","0.0-17.0-1.52","nw43","","","","","","452","q","pics/scaled/biene_buehne.png"
"audio-keyboard-response","334","1557446","0.0-17.0-0.53","nw43","","","","","","null","null","audio_projekt/tier.wav"
"image-keyboard-response","335","1558078","0.0-17.0-1.53","nw43","","","","","","631","q","pics/scaled/tier_tour.jpg"
"audio-keyboard-response","336","1559370","0.0-17.0-0.54","nw43","","","","","","null","null","audio_projekt/tuer.wav"
"image-keyboard-response","337","1559634","0.0-17.0-1.54","nw43","","","","","","263","p","pics/scaled/tuer_tour.jpg"
"audio-keyboard-response","338","1561029","0.0-17.0-0.55","nw43","","","","","","null","null","audio_projekt/blueten.wav"
"image-keyboard-response","339","1561279","0.0-17.0-1.55","nw43","","","","","","249","p","pics/scaled/bluten_blueten.jpg"
"audio-keyboard-response","340","1562582","0.0-17.0-0.56","nw43","","","","","","null","null","audio_projekt/tour.wav"
"image-keyboard-response","341","1564332","0.0-17.0-1.56","nw43","","","","","","1749","q","pics/scaled/tuer_tour.jpg"
"audio-keyboard-response","342","1566026","0.0-17.0-0.57","nw43","","","","","","null","null","audio_projekt/spuelen2.wav"
"image-keyboard-response","343","1568729","0.0-17.0-1.57","nw43","","","","","","2702","q","pics/scaled/spulen_spuelen.jpg"
"audio-keyboard-response","344","1570017","0.0-17.0-0.58","nw43","","","","","","null","null","audio_projekt/tour.wav"
"image-keyboard-response","345","1570899","0.0-17.0-1.58","nw43","","","","","","881","p","pics/scaled/tier_tour.jpg"
"audio-keyboard-response","346","1572352","0.0-17.0-0.59","nw43","","","","","","null","null","audio_projekt/lieder.wav"
"image-keyboard-response","347","1572714","0.0-17.0-1.59","nw43","","","","","","361","p","pics/scaled/lieder_leder.jpg"
"audio-keyboard-response","348","1574412","0.0-17.0-0.60","nw43","","","","","","null","null","audio_projekt/spuelen2.wav"
"image-keyboard-response","349","1574966","0.0-17.0-1.60","nw43","","","","","","552","p","pics/scaled/spielen_spuelen.jpg"
"audio-keyboard-response","350","1576354","0.0-17.0-0.61","nw43","","","","","","null","null","audio_projekt/blueten.wav"
"image-keyboard-response","351","1576715","0.0-17.0-1.61","nw43","","","","","","360","p","pics/scaled/bluten_blueten.jpg"
"audio-keyboard-response","352","1578424","0.0-17.0-0.62","nw43","","","","","","null","null","audio_projekt/spulen.wav"
"image-keyboard-response","353","1580769","0.0-17.0-1.62","nw43","","","","","","2343","q","pics/scaled/spulen_spuelen.jpg"
"audio-keyboard-response","354","1582453","0.0-17.0-0.63","nw43","","","","","","null","null","audio_projekt/spielen.wav"
"image-keyboard-response","355","1582731","0.0-17.0-1.63","nw43","","","","","","277","q","pics/scaled/spielen_spuelen.jpg"
"audio-keyboard-response","356","1584178","0.0-17.0-0.64","nw43","","","","","","null","null","audio_projekt/bluten.wav"
"image-keyboard-response","357","1584396","0.0-17.0-1.64","nw43","","","","","","219","p","pics/scaled/bluten_blueten.jpg"
"audio-keyboard-response","358","1585770","0.0-17.0-0.65","nw43","","","","","","null","null","audio_projekt/biene.wav"
"image-keyboard-response","359","1586053","0.0-17.0-1.65","nw43","","","","","","283","q","pics/scaled/biene_buehne.png"
