"trial_type","trial_index","time_elapsed","internal_node_id","subject","success","timeout","failed_images","failed_audio","failed_video","rt","response","stimulus"
"pavlovia","0","685","0.0-0.0","0p5y","","","","","","","",""
"preload","1","686","0.0-1.0","0p5y","true","false","[]","[]","[]","","",""
"survey-html-form","2","50718","0.0-2.0","0p5y","","","","","","50031","{""code"":""66418354f482e5bab79375e2""}",""
"html-button-response","3","71699","0.0-3.0","0p5y","","","","","","20980","0","<h2>Willkommen zum Experiment!</h2><div class=""myDiv""><p>Vielen Dank f&uuml;r Ihr Interesse an dieser Studie. Wir bitten Sie <strong>Kopfh&ouml;rer</strong> daf&uuml;r zu verwenden.</p></div><div><img src=""pics/headphones.png"" title=""Earbuds are also fine"" width=""250"" height=""200"" class=""center""></div><div class=""myDiv""><p>Das Experiment besteht aus zwei Teilen:</p> <ol> <li>Eine <strong>Unterscheidungsaufgabe,</strong> in der Sie zwei W&ouml;rter h&ouml;ren. Im Anschluss sollen Sie feststellen, ob diese W&ouml;rter gleich oder unterschiedlich sind;</li><li>Eine <strong>Identifikationsaufgabe,</strong> in der Sie nur ein Wort h&ouml;ren, wobei Ihnen aber zwei Bilder gezeigt werden. Ihre Aufgabe ist es, dasjenige Bild auszuw&auml;hlen, das das geh&ouml;rte Wort darstellt.</li> </ol><p>Wir bitten Sie um Ihre Zustimmung, bevor wir Ihre Daten sammeln und verwenden. Bitte klicken Sie auf den ""Start""-Button, um Ihre Zustimmung zu geben. Anschlie&szlig;end werden wir ein paar Fragen zu Ihren Sprachkenntnissen stellen. Danach k&ouml;nnen Sie das Experiment starten. </p></div>"
"survey-html-form","4","86371","0.0-4.0","0p5y","","","","","","14671","{""zustimmung"":""on""}",""
"survey-html-form","5","179102","0.0-5.0","0p5y","","","","","","92729","{""native"":""Englisch"",""AOL"":""12"",""LearnType1"":""classeshome"",""LearnType2"":""selflearn"",""LearnType4"":""uni"",""LearnType5"":""classesabroad"",""LearnType6"":""immersion"",""which"":""4"",""AOA"":""18"",""timespent"":""1 Jahr""}",""
"audio-button-response","6","183363","0.0-6.0-0.0","0p5y","","","","","","4030","0","audio_projekt/treffen1.wav"
"audio-button-response","7","185256","0.0-6.1-0.1","0p5y","","","","","","1892","1","audio_projekt/treffen1.wav"
"html-keyboard-response","8","206008","0.0-7.0","0p5y","","","","","","20751"," ","<h2>Teil 1: Unterscheidungsaufgabe</h2><div class=""myDiv""><p>In diesem Teil des Experimentes werden Sie im Abstand von 1.5 Sekunden <b>zwei W&ouml;rter</b> h&ouml;ren.</p><ul><li>Ihre Aufgabe ist es, festzustellen, ob diese W&ouml;rter <b>gleich oder unterschiedlich</b> sind. Wenn es einen Unterschied gibt, besteht dieser nur aus einem Vokal. </li> <li>Dr&uuml;cken Sie die <b>Taste Q</b>, wenn die W&ouml;rter gleich sind. Dr&uuml;cken Sie die <b>Taste P</b>, wenn die W&ouml;rter unterschiedlich sind.</li><li>Bitte warten Sie, bis Sie <b>beide Wörter gehört haben</b>, bevor Sie eine Taste drücken. Aber Achtung: Sie haben nur <b>5 Sekunden</b>, um eine Option auszuw&auml;hlen! &Uuml;berlegen Sie daher bitte nicht zu lange.</li></ul><br><p>Dr&uuml;cken Sie eine beliebige Taste, um ein paar Testversuche zu machen.</p></ul></div>"
"audio-keyboard-response","9","209347","0.0-8.0-0.0","0p5y","","","","","","null","null","audio_projekt/treffen1500triefen.wav"
"html-keyboard-response","10","210182","0.0-8.0-1.0","0p5y","","","","","","835","p","<div></div>"
"audio-keyboard-response","11","214007","0.0-8.0-0.1","0p5y","","","","","","null","null","audio_projekt/treffen1500treffen.wav"
"html-keyboard-response","12","214795","0.0-8.0-1.1","0p5y","","","","","","788","q","<div></div>"
"html-keyboard-response","13","218277","0.0-9.0","0p5y","","","","","","2680","p","<p>Gut! Jetzt f&auml;ngt der erste Teil des Experiments an. Dieser Teil dauert ca. 10 Minuten.</p><br><p>Bitte dr&uuml;cken Sie eine beliebige Taste, um fortzufahren.<div style=""height:30px; width:100%""></div>"
"audio-keyboard-response","14","221147","0.0-10.0-0.0","0p5y","","","","","","null","null","audio_projekt/lieder1500leder.wav"
"html-keyboard-response","15","222350","0.0-10.0-1.0","0p5y","","","","","","1202","p","<div></div>"
"audio-keyboard-response","16","226287","0.0-10.0-0.1","0p5y","","","","","","null","null","audio_projekt/stuhl1500stuhl.wav"
"html-keyboard-response","17","226969","0.0-10.0-1.1","0p5y","","","","","","681","q","<div></div>"
"audio-keyboard-response","18","230887","0.0-10.0-0.2","0p5y","","","","","","null","null","audio_projekt/stuhl1500stiel.wav"
"html-keyboard-response","19","231307","0.0-10.0-1.2","0p5y","","","","","","420","p","<div></div>"
"audio-keyboard-response","20","235447","0.0-10.0-0.3","0p5y","","","","","","null","null","audio_projekt/spielen1500spuelen.wav"
"html-keyboard-response","21","235805","0.0-10.0-1.3","0p5y","","","","","","357","p","<div></div>"
"audio-keyboard-response","22","239467","0.0-10.0-0.4","0p5y","","","","","","null","null","audio_projekt/leder1500lieder.wav"
"html-keyboard-response","23","239747","0.0-10.0-1.4","0p5y","","","","","","279","p","<div></div>"
"audio-keyboard-response","24","243686","0.0-10.0-0.5","0p5y","","","","","","null","null","audio_projekt/stiel1500stuhl.wav"
"html-keyboard-response","25","244227","0.0-10.0-1.5","0p5y","","","","","","540","p","<div></div>"
"audio-keyboard-response","26","247567","0.0-10.0-0.6","0p5y","","","","","","null","null","audio_projekt/tuer1500tuer.wav"
"html-keyboard-response","27","248257","0.0-10.0-1.6","0p5y","","","","","","689","q","<div></div>"
"audio-keyboard-response","28","252307","0.0-10.0-0.7","0p5y","","","","","","null","null","audio_projekt/siegel1500segel.wav"
"html-keyboard-response","29","252671","0.0-10.0-1.7","0p5y","","","","","","364","p","<div></div>"
"audio-keyboard-response","30","256207","0.0-10.0-0.8","0p5y","","","","","","null","null","audio_projekt/bluten1500blueten.wav"
"html-keyboard-response","31","256928","0.0-10.0-1.8","0p5y","","","","","","720","q","<div></div>"
"audio-keyboard-response","32","260947","0.0-10.0-0.9","0p5y","","","","","","null","null","audio_projekt/segel1500siegel.wav"
"html-keyboard-response","33","261228","0.0-10.0-1.9","0p5y","","","","","","281","p","<div></div>"
"audio-keyboard-response","34","264586","0.0-10.0-0.10","0p5y","","","","","","null","null","audio_projekt/tier1500tier.wav"
"html-keyboard-response","35","265422","0.0-10.0-1.10","0p5y","","","","","","835","q","<div></div>"
"audio-keyboard-response","36","269306","0.0-10.0-0.11","0p5y","","","","","","null","null","audio_projekt/siegel1500segel.wav"
"html-keyboard-response","37","269617","0.0-10.0-1.11","0p5y","","","","","","311","p","<div></div>"
"audio-keyboard-response","38","273267","0.0-10.0-0.12","0p5y","","","","","","null","null","audio_projekt/lieder1500lieder.wav"
"html-keyboard-response","39","273676","0.0-10.0-1.12","0p5y","","","","","","409","q","<div></div>"
"audio-keyboard-response","40","277227","0.0-10.0-0.13","0p5y","","","","","","null","null","audio_projekt/blueten1500blueten.wav"
"html-keyboard-response","41","277806","0.0-10.0-1.13","0p5y","","","","","","579","q","<div></div>"
"audio-keyboard-response","42","281987","0.0-10.0-0.14","0p5y","","","","","","null","null","audio_projekt/spulen1500spielen.wav"
"html-keyboard-response","43","282476","0.0-10.0-1.14","0p5y","","","","","","489","p","<div></div>"
"audio-keyboard-response","44","286387","0.0-10.0-0.15","0p5y","","","","","","null","null","audio_projekt/stiel1500stiel.wav"
"html-keyboard-response","45","286549","0.0-10.0-1.15","0p5y","","","","","","162","q","<div></div>"
"audio-keyboard-response","46","290707","0.0-10.0-0.16","0p5y","","","","","","null","null","audio_projekt/spulen1500spulen.wav"
"html-keyboard-response","47","291259","0.0-10.0-1.16","0p5y","","","","","","551","q","<div></div>"
"audio-keyboard-response","48","294487","0.0-10.0-0.17","0p5y","","","","","","null","null","audio_projekt/tier1500tier.wav"
"html-keyboard-response","49","294868","0.0-10.0-1.17","0p5y","","","","","","380","q","<div></div>"
"audio-keyboard-response","50","298507","0.0-10.0-0.18","0p5y","","","","","","null","null","audio_projekt/kuehl1500kiel.wav"
"html-keyboard-response","51","298873","0.0-10.0-1.18","0p5y","","","","","","366","p","<div></div>"
"audio-keyboard-response","52","303037","0.0-10.0-0.19","0p5y","","","","","","null","null","audio_projekt/spuelen1500spielen.wav"
"html-keyboard-response","53","304390","0.0-10.0-1.19","0p5y","","","","","","1353","p","<div></div>"
"audio-keyboard-response","54","307957","0.0-10.0-0.20","0p5y","","","","","","null","null","audio_projekt/blueten1500bluten.wav"
"html-keyboard-response","55","308731","0.0-10.0-1.20","0p5y","","","","","","774","q","<div></div>"
"audio-keyboard-response","56","312617","0.0-10.0-0.21","0p5y","","","","","","null","null","audio_projekt/segel1500siegel.wav"
"html-keyboard-response","57","312862","0.0-10.0-1.21","0p5y","","","","","","245","p","<div></div>"
"audio-keyboard-response","58","316917","0.0-10.0-0.22","0p5y","","","","","","null","null","audio_projekt/spulen1500spulen.wav"
"html-keyboard-response","59","317212","0.0-10.0-1.22","0p5y","","","","","","295","q","<div></div>"
"audio-keyboard-response","60","320837","0.0-10.0-0.23","0p5y","","","","","","null","null","audio_projekt/kiel1500kuehl.wav"
"html-keyboard-response","61","321203","0.0-10.0-1.23","0p5y","","","","","","365","p","<div></div>"
"audio-keyboard-response","62","324577","0.0-10.0-0.24","0p5y","","","","","","null","null","audio_projekt/tier1500tour.wav"
"html-keyboard-response","63","325578","0.0-10.0-1.24","0p5y","","","","","","1000","p","<div></div>"
"audio-keyboard-response","64","329737","0.0-10.0-0.25","0p5y","","","","","","null","null","audio_projekt/spielen1500spielen.wav"
"html-keyboard-response","65","330082","0.0-10.0-1.25","0p5y","","","","","","345","q","<div></div>"
"audio-keyboard-response","66","333697","0.0-10.0-0.26","0p5y","","","","","","null","null","audio_projekt/kiel1500kiel.wav"
"html-keyboard-response","67","334075","0.0-10.0-1.26","0p5y","","","","","","377","q","<div></div>"
"audio-keyboard-response","68","337697","0.0-10.0-0.27","0p5y","","","","","","null","null","audio_projekt/kuehl1500kuehl.wav"
"html-keyboard-response","69","338351","0.0-10.0-1.27","0p5y","","","","","","653","q","<div></div>"
"audio-keyboard-response","70","342156","0.0-10.0-0.28","0p5y","","","","","","null","null","audio_projekt/stiel1500stuhl.wav"
"html-keyboard-response","71","342444","0.0-10.0-1.28","0p5y","","","","","","287","p","<div></div>"
"audio-keyboard-response","72","345877","0.0-10.0-0.29","0p5y","","","","","","null","null","audio_projekt/blueten1500blueten.wav"
"html-keyboard-response","73","346475","0.0-10.0-1.29","0p5y","","","","","","598","q","<div></div>"
"audio-keyboard-response","74","349897","0.0-10.0-0.30","0p5y","","","","","","null","null","audio_projekt/bluten1500blueten.wav"
"html-keyboard-response","75","350117","0.0-10.0-1.30","0p5y","","","","","","219","q","<div></div>"
"audio-keyboard-response","76","353477","0.0-10.0-0.31","0p5y","","","","","","null","null","audio_projekt/tour1500tuer.wav"
"html-keyboard-response","77","353873","0.0-10.0-1.31","0p5y","","","","","","396","p","<div></div>"
"audio-keyboard-response","78","357677","0.0-10.0-0.32","0p5y","","","","","","null","null","audio_projekt/stuhl1500stuhl.wav"
"html-keyboard-response","79","358311","0.0-10.0-1.32","0p5y","","","","","","634","q","<div></div>"
"audio-keyboard-response","80","362357","0.0-10.0-0.33","0p5y","","","","","","null","null","audio_projekt/siegel1500siegel.wav"
"html-keyboard-response","81","362561","0.0-10.0-1.33","0p5y","","","","","","204","q","<div></div>"
"audio-keyboard-response","82","366556","0.0-10.0-0.34","0p5y","","","","","","null","null","audio_projekt/spulen1500spuelen.wav"
"html-keyboard-response","83","367601","0.0-10.0-1.34","0p5y","","","","","","1044","p","<div></div>"
"audio-keyboard-response","84","371117","0.0-10.0-0.35","0p5y","","","","","","null","null","audio_projekt/biene1500biene.wav"
"html-keyboard-response","85","371431","0.0-10.0-1.35","0p5y","","","","","","314","q","<div></div>"
"audio-keyboard-response","86","374837","0.0-10.0-0.36","0p5y","","","","","","null","null","audio_projekt/tuer1500tour.wav"
"html-keyboard-response","87","375425","0.0-10.0-1.36","0p5y","","","","","","588","p","<div></div>"
"audio-keyboard-response","88","378937","0.0-10.0-0.37","0p5y","","","","","","null","null","audio_projekt/buehne1500buehne.wav"
"html-keyboard-response","89","379219","0.0-10.0-1.37","0p5y","","","","","","282","q","<div></div>"
"audio-keyboard-response","90","383237","0.0-10.0-0.38","0p5y","","","","","","null","null","audio_projekt/spielen1500spielen.wav"
"html-keyboard-response","91","383727","0.0-10.0-1.38","0p5y","","","","","","490","q","<div></div>"
"audio-keyboard-response","92","387597","0.0-10.0-0.39","0p5y","","","","","","null","null","audio_projekt/siegel1500siegel.wav"
"html-keyboard-response","93","387753","0.0-10.0-1.39","0p5y","","","","","","156","q","<div></div>"
"audio-keyboard-response","94","391957","0.0-10.0-0.40","0p5y","","","","","","null","null","audio_projekt/spielen1500spulen.wav"
"html-keyboard-response","95","392055","0.0-10.0-1.40","0p5y","","","","","","98","p","<div></div>"
"audio-keyboard-response","96","395417","0.0-10.0-0.41","0p5y","","","","","","null","null","audio_projekt/biene1500biene.wav"
"html-keyboard-response","97","395867","0.0-10.0-1.41","0p5y","","","","","","450","q","<div></div>"
"audio-keyboard-response","98","399337","0.0-10.0-0.42","0p5y","","","","","","null","null","audio_projekt/kiel1500kuehl.wav"
"html-keyboard-response","99","400142","0.0-10.0-1.42","0p5y","","","","","","805","p","<div></div>"
"audio-keyboard-response","100","404177","0.0-10.0-0.43","0p5y","","","","","","null","null","audio_projekt/spielen1500spulen.wav"
"html-keyboard-response","101","404492","0.0-10.0-1.43","0p5y","","","","","","314","p","<div></div>"
"audio-keyboard-response","102","408527","0.0-10.0-0.44","0p5y","","","","","","null","null","audio_projekt/spulen1500spielen.wav"
"html-keyboard-response","103","408937","0.0-10.0-1.44","0p5y","","","","","","410","p","<div></div>"
"audio-keyboard-response","104","412446","0.0-10.0-0.45","0p5y","","","","","","null","null","audio_projekt/kuehl1500kuehl.wav"
"html-keyboard-response","105","412903","0.0-10.0-1.45","0p5y","","","","","","456","q","<div></div>"
"audio-keyboard-response","106","416927","0.0-10.0-0.46","0p5y","","","","","","null","null","audio_projekt/spielen1500spuelen.wav"
"html-keyboard-response","107","417103","0.0-10.0-1.46","0p5y","","","","","","176","p","<div></div>"
"audio-keyboard-response","108","420467","0.0-10.0-0.47","0p5y","","","","","","null","null","audio_projekt/tour1500tour.wav"
"html-keyboard-response","109","421062","0.0-10.0-1.47","0p5y","","","","","","595","q","<div></div>"
"audio-keyboard-response","110","425106","0.0-10.0-0.48","0p5y","","","","","","null","null","audio_projekt/segel1500segel.wav"
"html-keyboard-response","111","427816","0.0-10.0-1.48","0p5y","","","","","","2709","q","<div></div>"
"audio-keyboard-response","112","431207","0.0-10.0-0.49","0p5y","","","","","","null","null","audio_projekt/buehne1500buehne.wav"
"html-keyboard-response","113","432202","0.0-10.0-1.49","0p5y","","","","","","994","q","<div></div>"
"audio-keyboard-response","114","435747","0.0-10.0-0.50","0p5y","","","","","","null","null","audio_projekt/lieder1500lieder.wav"
"html-keyboard-response","115","436697","0.0-10.0-1.50","0p5y","","","","","","950","q","<div></div>"
"audio-keyboard-response","116","440267","0.0-10.0-0.51","0p5y","","","","","","null","null","audio_projekt/bluten1500bluten.wav"
"html-keyboard-response","117","441090","0.0-10.0-1.51","0p5y","","","","","","823","q","<div></div>"
"audio-keyboard-response","118","444307","0.0-10.0-0.52","0p5y","","","","","","null","null","audio_projekt/tour1500tour.wav"
"html-keyboard-response","119","445548","0.0-10.0-1.52","0p5y","","","","","","1241","q","<div></div>"
"audio-keyboard-response","120","449557","0.0-10.0-0.53","0p5y","","","","","","null","null","audio_projekt/spuelen1500spulen.wav"
"html-keyboard-response","121","449819","0.0-10.0-1.53","0p5y","","","","","","262","q","<div></div>"
"audio-keyboard-response","122","453297","0.0-10.0-0.54","0p5y","","","","","","null","null","audio_projekt/kuehl1500kiel.wav"
"html-keyboard-response","123","453715","0.0-10.0-1.54","0p5y","","","","","","418","p","<div></div>"
"audio-keyboard-response","124","457557","0.0-10.0-0.55","0p5y","","","","","","null","null","audio_projekt/spulen1500spuelen.wav"
"html-keyboard-response","125","459087","0.0-10.0-1.55","0p5y","","","","","","1530","p","<div></div>"
"audio-keyboard-response","126","462747","0.0-10.0-0.56","0p5y","","","","","","null","null","audio_projekt/leder1500leder.wav"
"html-keyboard-response","127","463144","0.0-10.0-1.56","0p5y","","","","","","397","q","<div></div>"
"audio-keyboard-response","128","466367","0.0-10.0-0.57","0p5y","","","","","","null","null","audio_projekt/tuer1500tour.wav"
"html-keyboard-response","129","466975","0.0-10.0-1.57","0p5y","","","","","","608","p","<div></div>"
"audio-keyboard-response","130","470807","0.0-10.0-0.58","0p5y","","","","","","null","null","audio_projekt/spuelen1500spulen.wav"
"html-keyboard-response","131","471482","0.0-10.0-1.58","0p5y","","","","","","674","q","<div></div>"
"audio-keyboard-response","132","474967","0.0-10.0-0.59","0p5y","","","","","","null","null","audio_projekt/kiel1500kiel.wav"
"html-keyboard-response","133","475603","0.0-10.0-1.59","0p5y","","","","","","636","q","<div></div>"
"audio-keyboard-response","134","479607","0.0-10.0-0.60","0p5y","","","","","","null","null","audio_projekt/spuelen1500spielen.wav"
"html-keyboard-response","135","480057","0.0-10.0-1.60","0p5y","","","","","","450","p","<div></div>"
"audio-keyboard-response","136","483466","0.0-10.0-0.61","0p5y","","","","","","null","null","audio_projekt/bluten1500bluten.wav"
"html-keyboard-response","137","483995","0.0-10.0-1.61","0p5y","","","","","","528","q","<div></div>"
"audio-keyboard-response","138","487507","0.0-10.0-0.62","0p5y","","","","","","null","null","audio_projekt/buehne1500biene.wav"
"html-keyboard-response","139","489120","0.0-10.0-1.62","0p5y","","","","","","1613","p","<div></div>"
"audio-keyboard-response","140","492647","0.0-10.0-0.63","0p5y","","","","","","null","null","audio_projekt/lieder1500leder.wav"
"html-keyboard-response","141","494325","0.0-10.0-1.63","0p5y","","","","","","1678","p","<div></div>"
"audio-keyboard-response","142","497667","0.0-10.0-0.64","0p5y","","","","","","null","null","audio_projekt/tour1500tier.wav"
"html-keyboard-response","143","499012","0.0-10.0-1.64","0p5y","","","","","","1345","p","<div></div>"
"audio-keyboard-response","144","502887","0.0-10.0-0.65","0p5y","","","","","","null","null","audio_projekt/segel1500segel.wav"
"html-keyboard-response","145","503775","0.0-10.0-1.65","0p5y","","","","","","887","q","<div></div>"
"audio-keyboard-response","146","507927","0.0-10.0-0.66","0p5y","","","","","","null","null","audio_projekt/spuelen1500spuelen.wav"
"html-keyboard-response","147","508168","0.0-10.0-1.66","0p5y","","","","","","241","q","<div></div>"
"audio-keyboard-response","148","511407","0.0-10.0-0.67","0p5y","","","","","","null","null","audio_projekt/tour1500tuer.wav"
"html-keyboard-response","149","513351","0.0-10.0-1.67","0p5y","","","","","","1944","p","<div></div>"
"audio-keyboard-response","150","516567","0.0-10.0-0.68","0p5y","","","","","","null","null","audio_projekt/tier1500tour.wav"
"html-keyboard-response","151","517354","0.0-10.0-1.68","0p5y","","","","","","787","p","<div></div>"
"audio-keyboard-response","152","520886","0.0-10.0-0.69","0p5y","","","","","","null","null","audio_projekt/leder1500leder.wav"
"html-keyboard-response","153","521666","0.0-10.0-1.69","0p5y","","","","","","779","q","<div></div>"
"audio-keyboard-response","154","525067","0.0-10.0-0.70","0p5y","","","","","","null","null","audio_projekt/blueten1500bluten.wav"
"html-keyboard-response","155","525664","0.0-10.0-1.70","0p5y","","","","","","597","q","<div></div>"
"audio-keyboard-response","156","529667","0.0-10.0-0.71","0p5y","","","","","","null","null","audio_projekt/spuelen1500spuelen.wav"
"html-keyboard-response","157","529937","0.0-10.0-1.71","0p5y","","","","","","270","q","<div></div>"
"audio-keyboard-response","158","533167","0.0-10.0-0.72","0p5y","","","","","","null","null","audio_projekt/tuer1500tuer.wav"
"html-keyboard-response","159","534300","0.0-10.0-1.72","0p5y","","","","","","1133","q","<div></div>"
"audio-keyboard-response","160","537826","0.0-10.0-0.73","0p5y","","","","","","null","null","audio_projekt/leder1500lieder.wav"
"html-keyboard-response","161","538456","0.0-10.0-1.73","0p5y","","","","","","629","p","<div></div>"
"audio-keyboard-response","162","542247","0.0-10.0-0.74","0p5y","","","","","","null","null","audio_projekt/stuhl1500stiel.wav"
"html-keyboard-response","163","543074","0.0-10.0-1.74","0p5y","","","","","","826","p","<div></div>"
"audio-keyboard-response","164","546306","0.0-10.0-0.75","0p5y","","","","","","null","null","audio_projekt/tour1500tier.wav"
"html-keyboard-response","165","547055","0.0-10.0-1.75","0p5y","","","","","","748","p","<div></div>"
"audio-keyboard-response","166","550546","0.0-10.0-0.76","0p5y","","","","","","null","null","audio_projekt/biene1500buehne.wav"
"html-keyboard-response","167","551851","0.0-10.0-1.76","0p5y","","","","","","1304","p","<div></div>"
"audio-keyboard-response","168","555646","0.0-10.0-0.77","0p5y","","","","","","null","null","audio_projekt/stiel1500stiel.wav"
"html-keyboard-response","169","555913","0.0-10.0-1.77","0p5y","","","","","","266","q","<div></div>"
"audio-keyboard-response","170","559266","0.0-10.0-0.78","0p5y","","","","","","null","null","audio_projekt/biene1500buehne.wav"
"html-keyboard-response","171","559654","0.0-10.0-1.78","0p5y","","","","","","388","p","<div></div>"
"audio-keyboard-response","172","563026","0.0-10.0-0.79","0p5y","","","","","","null","null","audio_projekt/buehne1500biene.wav"
"html-keyboard-response","173","563280","0.0-10.0-1.79","0p5y","","","","","","253","p","<div></div>"
"html-keyboard-response","174","571556","0.0-11.0","0p5y","","","","","","7461"," ","<h2>Pause</h2><div class=""myDiv""><p>Gut gemacht! Jetzt k&ouml;nnen Sie eine kleine Pause machen.</p></div><div><img src=""pics/coffee.png"" title=""Machen Sie eine Pause..."" width=""150"" height=""150"" class=""center""></div><div style=""height:20px; width:100%""></div><p>Wenn Sie bereit sind, dr&uuml;cken Sie eine beliebige Taste, um fortzufahren.</p>"
"html-keyboard-response","175","580314","0.0-12.0","0p5y","","","","","","8758"," ","<h2>Teil 2: Identifikationsaufgabe: Vorbereitung 1</h2><div class=""myDiv""><p>In diesem Teil des Experimentes werden Sie nur ein Wort h&ouml;ren. </p><p>Anschlie&szlig;end werden zwei Bilder gezeigt. W&auml;hlen Sie das Bild aus, das das Wort darstellt.</p><p>Bevor die Aufgabe beginnt, werden die Bilder mit den entsprechenden W&ouml;rtern angezeigt. Sie werden jedes Bild zweimal sehen.</p><p>Dr&uuml;cken Sie bitte eine beliebige Taste, um die Bilder zu sehen.</p>"
"audio-button-response","176","583803","0.0-13.0-0.0-0.0","0p5y","","","","","","3403","0","audio_projekt/blueten.wav"
"audio-button-response","177","586420","0.0-13.0-0.0-0.1","0p5y","","","","","","2535","0","audio_projekt/beten1.wav"
"audio-button-response","178","588119","0.0-13.0-0.0-0.2","0p5y","","","","","","1620","0","audio_projekt/tuer.wav"
"audio-button-response","179","590735","0.0-13.0-0.0-0.3","0p5y","","","","","","2524","0","audio_projekt/bluten.wav"
"audio-button-response","180","592602","0.0-13.0-0.0-0.4","0p5y","","","","","","1783","0","audio_projekt/buehne.wav"
"audio-button-response","181","594667","0.0-13.0-0.0-0.5","0p5y","","","","","","1969","0","audio_projekt/leder.wav"
"audio-button-response","182","596965","0.0-13.0-0.0-0.6","0p5y","","","","","","2188","0","audio_projekt/bieten1.wav"
"audio-button-response","183","599295","0.0-13.0-0.0-0.7","0p5y","","","","","","2221","0","audio_projekt/spulen.wav"
"audio-button-response","184","602129","0.0-13.0-0.0-0.8","0p5y","","","","","","2691","0","audio_projekt/biene.wav"
"audio-button-response","185","604291","0.0-13.0-0.0-0.9","0p5y","","","","","","2032","0","audio_projekt/segel.wav"
"audio-button-response","186","606652","0.0-13.0-0.0-0.10","0p5y","","","","","","2217","0","audio_projekt/stuhl.wav"
"audio-button-response","187","608306","0.0-13.0-0.0-0.11","0p5y","","","","","","1508","0","audio_projekt/tier.wav"
"audio-button-response","188","610344","0.0-13.0-0.0-0.12","0p5y","","","","","","1915","0","audio_projekt/treffen2.wav"
"audio-button-response","189","612531","0.0-13.0-0.0-0.13","0p5y","","","","","","2046","0","audio_projekt/stiel.wav"
"audio-button-response","190","614453","0.0-13.0-0.0-0.14","0p5y","","","","","","1816","0","audio_projekt/siegel.wav"
"audio-button-response","191","616136","0.0-13.0-0.0-0.15","0p5y","","","","","","1570","0","audio_projekt/tour.wav"
"audio-button-response","192","617900","0.0-13.0-0.0-0.16","0p5y","","","","","","1667","0","audio_projekt/lieder.wav"
"audio-button-response","193","619848","0.0-13.0-0.0-0.17","0p5y","","","","","","1854","0","audio_projekt/spuelen2.wav"
"audio-button-response","194","622651","0.0-13.0-0.0-0.18","0p5y","","","","","","2721","0","audio_projekt/kiel.wav"
"audio-button-response","195","624848","0.0-13.0-0.0-0.19","0p5y","","","","","","2104","0","audio_projekt/kuehl.wav"
"audio-button-response","196","627044","0.0-13.0-0.0-0.20","0p5y","","","","","","2110","0","audio_projekt/spielen2.wav"
"audio-button-response","197","629075","0.0-13.0-0.0-0.21","0p5y","","","","","","1946","0","audio_projekt/triefen1.wav"
"audio-button-response","198","631981","0.0-13.0-0.1-0.22","0p5y","","","","","","2904","0","audio_projekt/blueten.wav"
"audio-button-response","199","635899","0.0-13.0-0.1-0.23","0p5y","","","","","","3917","0","audio_projekt/beten1.wav"
"audio-button-response","200","638344","0.0-13.0-0.1-0.24","0p5y","","","","","","2444","0","audio_projekt/tuer.wav"
"audio-button-response","201","640960","0.0-13.0-0.1-0.25","0p5y","","","","","","2616","0","audio_projekt/bluten.wav"
"audio-button-response","202","643617","0.0-13.0-0.1-0.26","0p5y","","","","","","2656","0","audio_projekt/buehne.wav"
"audio-button-response","203","646068","0.0-13.0-0.1-0.27","0p5y","","","","","","2450","0","audio_projekt/leder.wav"
"audio-button-response","204","647977","0.0-13.0-0.1-0.28","0p5y","","","","","","1909","0","audio_projekt/bieten1.wav"
"audio-button-response","205","650684","0.0-13.0-0.1-0.29","0p5y","","","","","","2706","0","audio_projekt/spulen.wav"
"audio-button-response","206","653333","0.0-13.0-0.1-0.30","0p5y","","","","","","2648","0","audio_projekt/biene.wav"
"audio-button-response","207","656712","0.0-13.0-0.1-0.31","0p5y","","","","","","3379","0","audio_projekt/segel.wav"
"audio-button-response","208","660457","0.0-13.0-0.1-0.32","0p5y","","","","","","3744","0","audio_projekt/stuhl.wav"
"audio-button-response","209","663539","0.0-13.0-0.1-0.33","0p5y","","","","","","3080","0","audio_projekt/tier.wav"
"audio-button-response","210","665538","0.0-13.0-0.1-0.34","0p5y","","","","","","1998","0","audio_projekt/treffen2.wav"
"audio-button-response","211","667606","0.0-13.0-0.1-0.35","0p5y","","","","","","2067","0","audio_projekt/stiel.wav"
"audio-button-response","212","669085","0.0-13.0-0.1-0.36","0p5y","","","","","","1479","0","audio_projekt/siegel.wav"
"audio-button-response","213","671043","0.0-13.0-0.1-0.37","0p5y","","","","","","1956","0","audio_projekt/tour.wav"
"audio-button-response","214","673744","0.0-13.0-0.1-0.38","0p5y","","","","","","2701","0","audio_projekt/lieder.wav"
"audio-button-response","215","676673","0.0-13.0-0.1-0.39","0p5y","","","","","","2928","0","audio_projekt/spuelen2.wav"
"audio-button-response","216","679229","0.0-13.0-0.1-0.40","0p5y","","","","","","2556","0","audio_projekt/kiel.wav"
"audio-button-response","217","681963","0.0-13.0-0.1-0.41","0p5y","","","","","","2733","0","audio_projekt/kuehl.wav"
"audio-button-response","218","684974","0.0-13.0-0.1-0.42","0p5y","","","","","","3010","0","audio_projekt/spielen2.wav"
"audio-button-response","219","687457","0.0-13.0-0.1-0.43","0p5y","","","","","","2482","0","audio_projekt/triefen1.wav"
"html-keyboard-response","220","695889","0.0-14.0","0p5y","","","","","","8431"," ","<h2>Teil 2: Identifikationsaufgabe: Vorbereitung 2</h2><div class=""myDiv""><p>Jetzt können Sie einen kurzen Probedurchlauf f&uuml;r diesen Teil des Experiments machen.</p><p>W&auml;hlen Sie das Bild aus, das das Wort darstellt. <ul><li>Dr&uuml;cken Sie die <b>Taste Q</b>, um das <b>linke</b> Bild auszuw&auml;hlen. Dr&uuml;cken Sie die <b>Taste P</b>, um das <b>rechte</b> Bild auszuw&auml;hlen.</li> <li>Sie haben 5 Sekunden Zeit, um sich f&uuml;r eines der Bilder zu entscheiden. </li><li>Bitte warten Sie, bis Sie <b>das ganze Wort gehört haben</b>, bevor Sie eine Taste drücken.</li></ul></p><p>Dr&uuml;cken Sie eine beliebige Taste, um den Probedurchlauf anzufangen.</p>"
"audio-keyboard-response","221","696584","0.0-15.0-0.0","0p5y","","","","","","null","null","audio_projekt/treffen2.wav"
"image-keyboard-response","222","697438","0.0-15.0-1.0","0p5y","","","","","","852","p","pics/scaled/triefen_treffen.png"
"audio-keyboard-response","223","698824","0.0-15.0-0.1","0p5y","","","","","","null","null","audio_projekt/beten1.wav"
"image-keyboard-response","224","701047","0.0-15.0-1.1","0p5y","","","","","","2222","p","pics/scaled/bieten_beten.jpg"
"html-keyboard-response","225","703684","0.0-16.0","0p5y","","","","","","1834"," ","<h2>Teil 2: Identifikationsaufgabe</h2><p>Jetzt sind Sie darauf vorbereitet, die Identifikationsaufgabe auszuführen.</p><p>Sind Sie bereit? Dann dr&uuml;cken Sie eine beliebige Taste, um anzufangen.</p>"
"audio-keyboard-response","226","704184","0.0-17.0-0.0","0p5y","","","","","","null","null","audio_projekt/tour.wav"
"image-keyboard-response","227","705366","0.0-17.0-1.0","0p5y","","","","","","1181","p","pics/scaled/tier_tour.jpg"
"audio-keyboard-response","228","706934","0.0-17.0-0.1","0p5y","","","","","","null","null","audio_projekt/stuhl.wav"
"image-keyboard-response","229","707720","0.0-17.0-1.1","0p5y","","","","","","785","p","pics/scaled/stiel2_stuhl.jpg"
"audio-keyboard-response","230","709404","0.0-17.0-0.2","0p5y","","","","","","null","null","audio_projekt/spuelen2.wav"
"image-keyboard-response","231","710002","0.0-17.0-1.2","0p5y","","","","","","597","p","pics/scaled/spulen_spuelen.jpg"
"audio-keyboard-response","232","711384","0.0-17.0-0.3","0p5y","","","","","","null","null","audio_projekt/buehne.wav"
"image-keyboard-response","233","712110","0.0-17.0-1.3","0p5y","","","","","","725","p","pics/scaled/biene_buehne.png"
"audio-keyboard-response","234","713544","0.0-17.0-0.4","0p5y","","","","","","null","null","audio_projekt/lieder.wav"
"image-keyboard-response","235","714198","0.0-17.0-1.4","0p5y","","","","","","653","p","pics/scaled/lieder_leder.jpg"
"audio-keyboard-response","236","715784","0.0-17.0-0.5","0p5y","","","","","","null","null","audio_projekt/stiel.wav"
"image-keyboard-response","237","717874","0.0-17.0-1.5","0p5y","","","","","","2089","q","pics/scaled/stiel2_stuhl.jpg"
"audio-keyboard-response","238","719464","0.0-17.0-0.6","0p5y","","","","","","null","null","audio_projekt/stuhl.wav"
"image-keyboard-response","239","720327","0.0-17.0-1.6","0p5y","","","","","","862","p","pics/scaled/stiel2_stuhl.jpg"
"audio-keyboard-response","240","721764","0.0-17.0-0.7","0p5y","","","","","","null","null","audio_projekt/kuehl.wav"
"image-keyboard-response","241","722909","0.0-17.0-1.7","0p5y","","","","","","1145","p","pics/scaled/kiel_kuehl.jpg"
"audio-keyboard-response","242","724364","0.0-17.0-0.8","0p5y","","","","","","null","null","audio_projekt/leder.wav"
"image-keyboard-response","243","724854","0.0-17.0-1.8","0p5y","","","","","","489","q","pics/scaled/lieder_leder.jpg"
"audio-keyboard-response","244","726284","0.0-17.0-0.9","0p5y","","","","","","null","null","audio_projekt/lieder.wav"
"image-keyboard-response","245","726835","0.0-17.0-1.9","0p5y","","","","","","550","p","pics/scaled/lieder_leder.jpg"
"audio-keyboard-response","246","728144","0.0-17.0-0.10","0p5y","","","","","","null","null","audio_projekt/tour.wav"
"image-keyboard-response","247","729137","0.0-17.0-1.10","0p5y","","","","","","993","p","pics/scaled/tier_tour.jpg"
"audio-keyboard-response","248","730444","0.0-17.0-0.11","0p5y","","","","","","null","null","audio_projekt/tuer.wav"
"image-keyboard-response","249","732632","0.0-17.0-1.11","0p5y","","","","","","2187","p","pics/scaled/tuer_tour.jpg"
"audio-keyboard-response","250","734323","0.0-17.0-0.12","0p5y","","","","","","null","null","audio_projekt/spuelen2.wav"
"image-keyboard-response","251","735273","0.0-17.0-1.12","0p5y","","","","","","949","p","pics/scaled/spulen_spuelen.jpg"
"audio-keyboard-response","252","737044","0.0-17.0-0.13","0p5y","","","","","","null","null","audio_projekt/spielen.wav"
"image-keyboard-response","253","737433","0.0-17.0-1.13","0p5y","","","","","","389","q","pics/scaled/spielen_spuelen.jpg"
"audio-keyboard-response","254","739133","0.0-17.0-0.14","0p5y","","","","","","null","null","audio_projekt/spulen.wav"
"image-keyboard-response","255","740229","0.0-17.0-1.14","0p5y","","","","","","1095","q","pics/scaled/spielen_spulen.jpg"
"audio-keyboard-response","256","741933","0.0-17.0-0.15","0p5y","","","","","","null","null","audio_projekt/spielen2.wav"
"image-keyboard-response","257","742614","0.0-17.0-1.15","0p5y","","","","","","680","p","pics/scaled/spielen_spulen.jpg"
"audio-keyboard-response","258","744194","0.0-17.0-0.16","0p5y","","","","","","null","null","audio_projekt/stuhl.wav"
"image-keyboard-response","259","745629","0.0-17.0-1.16","0p5y","","","","","","1434","p","pics/scaled/stiel2_stuhl.jpg"
"audio-keyboard-response","260","747294","0.0-17.0-0.17","0p5y","","","","","","null","null","audio_projekt/spielen.wav"
"image-keyboard-response","261","747761","0.0-17.0-1.17","0p5y","","","","","","466","q","pics/scaled/spielen_spuelen.jpg"
"audio-keyboard-response","262","749344","0.0-17.0-0.18","0p5y","","","","","","null","null","audio_projekt/stiel.wav"
"image-keyboard-response","263","749962","0.0-17.0-1.18","0p5y","","","","","","617","q","pics/scaled/stiel2_stuhl.jpg"
"audio-keyboard-response","264","751384","0.0-17.0-0.19","0p5y","","","","","","null","null","audio_projekt/kuehl.wav"
"image-keyboard-response","265","752610","0.0-17.0-1.19","0p5y","","","","","","1226","p","pics/scaled/kiel_kuehl.jpg"
"audio-keyboard-response","266","753974","0.0-17.0-0.20","0p5y","","","","","","null","null","audio_projekt/blueten.wav"
"image-keyboard-response","267","755924","0.0-17.0-1.20","0p5y","","","","","","1950","p","pics/scaled/bluten_blueten.jpg"
"audio-keyboard-response","268","757594","0.0-17.0-0.21","0p5y","","","","","","null","null","audio_projekt/spulen.wav"
"image-keyboard-response","269","758687","0.0-17.0-1.21","0p5y","","","","","","1093","p","pics/scaled/spulen_spuelen.jpg"
"audio-keyboard-response","270","760234","0.0-17.0-0.22","0p5y","","","","","","null","null","audio_projekt/stiel.wav"
"image-keyboard-response","271","761411","0.0-17.0-1.22","0p5y","","","","","","1177","q","pics/scaled/stiel2_stuhl.jpg"
"audio-keyboard-response","272","762754","0.0-17.0-0.23","0p5y","","","","","","null","null","audio_projekt/buehne.wav"
"image-keyboard-response","273","763455","0.0-17.0-1.23","0p5y","","","","","","700","p","pics/scaled/biene_buehne.png"
"audio-keyboard-response","274","764754","0.0-17.0-0.24","0p5y","","","","","","null","null","audio_projekt/tier.wav"
"image-keyboard-response","275","766217","0.0-17.0-1.24","0p5y","","","","","","1462","q","pics/scaled/tier_tour.jpg"
"audio-keyboard-response","276","767593","0.0-17.0-0.25","0p5y","","","","","","null","null","audio_projekt/bluten.wav"
"image-keyboard-response","277","770129","0.0-17.0-1.25","0p5y","","","","","","2535","p","pics/scaled/bluten_blueten.jpg"
"audio-keyboard-response","278","771794","0.0-17.0-0.26","0p5y","","","","","","null","null","audio_projekt/spuelen2.wav"
"image-keyboard-response","279","772685","0.0-17.0-1.26","0p5y","","","","","","890","p","pics/scaled/spulen_spuelen.jpg"
"audio-keyboard-response","280","774353","0.0-17.0-0.27","0p5y","","","","","","null","null","audio_projekt/spulen.wav"
"image-keyboard-response","281","776163","0.0-17.0-1.27","0p5y","","","","","","1810","q","pics/scaled/spulen_spuelen.jpg"
"audio-keyboard-response","282","777823","0.0-17.0-0.28","0p5y","","","","","","null","null","audio_projekt/spuelen2.wav"
"image-keyboard-response","283","778419","0.0-17.0-1.28","0p5y","","","","","","595","p","pics/scaled/spielen_spuelen.jpg"
"audio-keyboard-response","284","780024","0.0-17.0-0.29","0p5y","","","","","","null","null","audio_projekt/siegel.wav"
"image-keyboard-response","285","782730","0.0-17.0-1.29","0p5y","","","","","","2706","q","pics/scaled/siegel_segel.jpg"
"audio-keyboard-response","286","784144","0.0-17.0-0.30","0p5y","","","","","","null","null","audio_projekt/kiel.wav"
"image-keyboard-response","287","785691","0.0-17.0-1.30","0p5y","","","","","","1547","q","pics/scaled/kiel_kuehl.jpg"
"audio-keyboard-response","288","786964","0.0-17.0-0.31","0p5y","","","","","","null","null","audio_projekt/tour.wav"
"image-keyboard-response","289","789036","0.0-17.0-1.31","0p5y","","","","","","2072","p","pics/scaled/tuer_tour.jpg"
"audio-keyboard-response","290","790404","0.0-17.0-0.32","0p5y","","","","","","null","null","audio_projekt/bluten.wav"
"image-keyboard-response","291","792145","0.0-17.0-1.32","0p5y","","","","","","1740","p","pics/scaled/bluten_blueten.jpg"
"audio-keyboard-response","292","793564","0.0-17.0-0.33","0p5y","","","","","","null","null","audio_projekt/kuehl.wav"
"image-keyboard-response","293","794222","0.0-17.0-1.33","0p5y","","","","","","658","p","pics/scaled/kiel_kuehl.jpg"
"audio-keyboard-response","294","795624","0.0-17.0-0.34","0p5y","","","","","","null","null","audio_projekt/kiel.wav"
"image-keyboard-response","295","796086","0.0-17.0-1.34","0p5y","","","","","","461","q","pics/scaled/kiel_kuehl.jpg"
"audio-keyboard-response","296","797384","0.0-17.0-0.35","0p5y","","","","","","null","null","audio_projekt/tuer.wav"
"image-keyboard-response","297","798673","0.0-17.0-1.35","0p5y","","","","","","1289","p","pics/scaled/tuer_tour.jpg"
"audio-keyboard-response","298","800364","0.0-17.0-0.36","0p5y","","","","","","null","null","audio_projekt/spulen.wav"
"image-keyboard-response","299","801826","0.0-17.0-1.36","0p5y","","","","","","1461","q","pics/scaled/spielen_spulen.jpg"
"audio-keyboard-response","300","803124","0.0-17.0-0.37","0p5y","","","","","","null","null","audio_projekt/tier.wav"
"image-keyboard-response","301","805012","0.0-17.0-1.37","0p5y","","","","","","1887","q","pics/scaled/tier_tour.jpg"
"audio-keyboard-response","302","806384","0.0-17.0-0.38","0p5y","","","","","","null","null","audio_projekt/blueten.wav"
"image-keyboard-response","303","808083","0.0-17.0-1.38","0p5y","","","","","","1698","p","pics/scaled/bluten_blueten.jpg"
"audio-keyboard-response","304","809444","0.0-17.0-0.39","0p5y","","","","","","null","null","audio_projekt/buehne.wav"
"image-keyboard-response","305","810038","0.0-17.0-1.39","0p5y","","","","","","594","p","pics/scaled/biene_buehne.png"
"audio-keyboard-response","306","811304","0.0-17.0-0.40","0p5y","","","","","","null","null","audio_projekt/tuer.wav"
"image-keyboard-response","307","812190","0.0-17.0-1.40","0p5y","","","","","","885","p","pics/scaled/tuer_tour.jpg"
"audio-keyboard-response","308","813624","0.0-17.0-0.41","0p5y","","","","","","null","null","audio_projekt/leder.wav"
"image-keyboard-response","309","814108","0.0-17.0-1.41","0p5y","","","","","","484","q","pics/scaled/lieder_leder.jpg"
"audio-keyboard-response","310","815784","0.0-17.0-0.42","0p5y","","","","","","null","null","audio_projekt/spielen2.wav"
"image-keyboard-response","311","816142","0.0-17.0-1.42","0p5y","","","","","","357","p","pics/scaled/spielen_spulen.jpg"
"audio-keyboard-response","312","817824","0.0-17.0-0.43","0p5y","","","","","","null","null","audio_projekt/spulen.wav"
"image-keyboard-response","313","819754","0.0-17.0-1.43","0p5y","","","","","","1929","p","pics/scaled/spulen_spuelen.jpg"
"audio-keyboard-response","314","821124","0.0-17.0-0.44","0p5y","","","","","","null","null","audio_projekt/bluten.wav"
"image-keyboard-response","315","822704","0.0-17.0-1.44","0p5y","","","","","","1580","p","pics/scaled/bluten_blueten.jpg"
"audio-keyboard-response","316","824124","0.0-17.0-0.45","0p5y","","","","","","null","null","audio_projekt/leder.wav"
"image-keyboard-response","317","824535","0.0-17.0-1.45","0p5y","","","","","","411","q","pics/scaled/lieder_leder.jpg"
"audio-keyboard-response","318","825884","0.0-17.0-0.46","0p5y","","","","","","null","null","audio_projekt/blueten.wav"
"image-keyboard-response","319","827226","0.0-17.0-1.46","0p5y","","","","","","1341","p","pics/scaled/bluten_blueten.jpg"
"audio-keyboard-response","320","828624","0.0-17.0-0.47","0p5y","","","","","","null","null","audio_projekt/kiel.wav"
"image-keyboard-response","321","829155","0.0-17.0-1.47","0p5y","","","","","","531","q","pics/scaled/kiel_kuehl.jpg"
"audio-keyboard-response","322","830824","0.0-17.0-0.48","0p5y","","","","","","null","null","audio_projekt/spuelen2.wav"
"image-keyboard-response","323","831222","0.0-17.0-1.48","0p5y","","","","","","397","p","pics/scaled/spielen_spuelen.jpg"
"audio-keyboard-response","324","832903","0.0-17.0-0.49","0p5y","","","","","","null","null","audio_projekt/spielen2.wav"
"image-keyboard-response","325","833269","0.0-17.0-1.49","0p5y","","","","","","365","p","pics/scaled/spielen_spulen.jpg"
"audio-keyboard-response","326","834944","0.0-17.0-0.50","0p5y","","","","","","null","null","audio_projekt/spielen.wav"
"image-keyboard-response","327","835408","0.0-17.0-1.50","0p5y","","","","","","464","q","pics/scaled/spielen_spuelen.jpg"
"audio-keyboard-response","328","836744","0.0-17.0-0.51","0p5y","","","","","","null","null","audio_projekt/biene.wav"
"image-keyboard-response","329","837328","0.0-17.0-1.51","0p5y","","","","","","583","q","pics/scaled/biene_buehne.png"
"audio-keyboard-response","330","838923","0.0-17.0-0.52","0p5y","","","","","","null","null","audio_projekt/siegel.wav"
"image-keyboard-response","331","840568","0.0-17.0-1.52","0p5y","","","","","","1644","q","pics/scaled/siegel_segel.jpg"
"audio-keyboard-response","332","842163","0.0-17.0-0.53","0p5y","","","","","","null","null","audio_projekt/segel.wav"
"image-keyboard-response","333","843979","0.0-17.0-1.53","0p5y","","","","","","1815","q","pics/scaled/siegel_segel.jpg"
"audio-keyboard-response","334","845584","0.0-17.0-0.54","0p5y","","","","","","null","null","audio_projekt/segel.wav"
"image-keyboard-response","335","846237","0.0-17.0-1.54","0p5y","","","","","","653","q","pics/scaled/siegel_segel.jpg"
"audio-keyboard-response","336","847664","0.0-17.0-0.55","0p5y","","","","","","null","null","audio_projekt/lieder.wav"
"image-keyboard-response","337","848313","0.0-17.0-1.55","0p5y","","","","","","649","q","pics/scaled/lieder_leder.jpg"
"audio-keyboard-response","338","849603","0.0-17.0-0.56","0p5y","","","","","","null","null","audio_projekt/tour.wav"
"image-keyboard-response","339","850851","0.0-17.0-1.56","0p5y","","","","","","1247","p","pics/scaled/tier_tour.jpg"
"audio-keyboard-response","340","852443","0.0-17.0-0.57","0p5y","","","","","","null","null","audio_projekt/siegel.wav"
"image-keyboard-response","341","853656","0.0-17.0-1.57","0p5y","","","","","","1212","p","pics/scaled/siegel_segel.jpg"
"audio-keyboard-response","342","854924","0.0-17.0-0.58","0p5y","","","","","","null","null","audio_projekt/tour.wav"
"image-keyboard-response","343","856753","0.0-17.0-1.58","0p5y","","","","","","1829","q","pics/scaled/tuer_tour.jpg"
"audio-keyboard-response","344","858443","0.0-17.0-0.59","0p5y","","","","","","null","null","audio_projekt/spulen.wav"
"image-keyboard-response","345","859248","0.0-17.0-1.59","0p5y","","","","","","805","q","pics/scaled/spielen_spulen.jpg"
"audio-keyboard-response","346","860603","0.0-17.0-0.60","0p5y","","","","","","null","null","audio_projekt/biene.wav"
"image-keyboard-response","347","861093","0.0-17.0-1.60","0p5y","","","","","","489","q","pics/scaled/biene_buehne.png"
"audio-keyboard-response","348","862384","0.0-17.0-0.61","0p5y","","","","","","null","null","audio_projekt/tour.wav"
"image-keyboard-response","349","863312","0.0-17.0-1.61","0p5y","","","","","","927","p","pics/scaled/tuer_tour.jpg"
"audio-keyboard-response","350","864603","0.0-17.0-0.62","0p5y","","","","","","null","null","audio_projekt/tier.wav"
"image-keyboard-response","351","865116","0.0-17.0-1.62","0p5y","","","","","","512","q","pics/scaled/tier_tour.jpg"
"audio-keyboard-response","352","866463","0.0-17.0-0.63","0p5y","","","","","","null","null","audio_projekt/biene.wav"
"image-keyboard-response","353","866983","0.0-17.0-1.63","0p5y","","","","","","519","q","pics/scaled/biene_buehne.png"
"audio-keyboard-response","354","868583","0.0-17.0-0.64","0p5y","","","","","","null","null","audio_projekt/segel.wav"
"image-keyboard-response","355","870096","0.0-17.0-1.64","0p5y","","","","","","1511","p","pics/scaled/siegel_segel.jpg"
"audio-keyboard-response","356","871763","0.0-17.0-0.65","0p5y","","","","","","null","null","audio_projekt/spuelen2.wav"
"image-keyboard-response","357","872327","0.0-17.0-1.65","0p5y","","","","","","563","p","pics/scaled/spielen_spuelen.jpg"
