"trial_type","trial_index","time_elapsed","internal_node_id","subject","success","timeout","failed_images","failed_audio","failed_video","rt","response","stimulus"
"pavlovia","0","1228","0.0-0.0","vckw","","","","","","","",""
"preload","1","1231","0.0-1.0","vckw","true","false","[]","[]","[]","","",""
"survey-html-form","2","8709","0.0-2.0","vckw","","","","","","7473","{""code"":""62a33f629f9fe91f831c2afc""}",""
"html-button-response","3","479136","0.0-3.0","vckw","","","","","","470421","0","<h2>Willkommen zum Experiment!</h2><div class=""myDiv""><p>Vielen Dank f&uuml;r Ihr Interesse an dieser Studie. Wir bitten Sie <strong>Kopfh&ouml;rer</strong> daf&uuml;r zu verwenden.</p></div><div><img src=""pics/headphones.png"" title=""Earbuds are also fine"" width=""250"" height=""200"" class=""center""></div><div class=""myDiv""><p>Das Experiment besteht aus zwei Teilen:</p> <ol> <li>Eine <strong>Unterscheidungsaufgabe,</strong> in der Sie zwei W&ouml;rter h&ouml;ren. Im Anschluss sollen Sie feststellen, ob diese W&ouml;rter gleich oder unterschiedlich sind;</li><li>Eine <strong>Identifikationsaufgabe,</strong> in der Sie nur ein Wort h&ouml;ren, wobei Ihnen aber zwei Bilder gezeigt werden. Ihre Aufgabe ist es, dasjenige Bild auszuw&auml;hlen, das das geh&ouml;rte Wort darstellt.</li> </ol><p>Wir bitten Sie um Ihre Zustimmung, bevor wir Ihre Daten sammeln und verwenden. Bitte klicken Sie auf den ""Start""-Button, um Ihre Zustimmung zu geben. Anschlie&szlig;end werden wir ein paar Fragen zu Ihren Sprachkenntnissen stellen. Danach k&ouml;nnen Sie das Experiment starten. </p></div>"
"survey-html-form","4","485356","0.0-4.0","vckw","","","","","","6216","{""zustimmung"":""on""}",""
"survey-html-form","5","542212","0.0-5.0","vckw","","","","","","56847","{""native"":""Englisch"",""AOL"":""15"",""LearnType1"":""classeshome"",""LearnType2"":""selflearn"",""which"":""selbstlernen"",""AOA"":"""",""timespent"":""""}",""
"audio-button-response","6","1355180","0.0-6.0-0.0","vckw","","","","","","812220","0","audio_projekt/treffen1.wav"
"audio-button-response","7","1376365","0.0-6.1-0.1","vckw","","","","","","21181","0","audio_projekt/treffen1.wav"
"audio-button-response","8","1379878","0.0-6.2-0.2","vckw","","","","","","3508","0","audio_projekt/treffen1.wav"
"audio-button-response","9","1381570","0.0-6.3-0.3","vckw","","","","","","1688","0","audio_projekt/treffen1.wav"
"audio-button-response","10","1387217","0.0-6.4-0.4","vckw","","","","","","5639","0","audio_projekt/treffen1.wav"
"audio-button-response","11","1388660","0.0-6.5-0.5","vckw","","","","","","1438","0","audio_projekt/treffen1.wav"
"audio-button-response","12","1390327","0.0-6.6-0.6","vckw","","","","","","1660","0","audio_projekt/treffen1.wav"
"audio-button-response","13","1391297","0.0-6.7-0.7","vckw","","","","","","967","0","audio_projekt/treffen1.wav"
"audio-button-response","14","1392716","0.0-6.8-0.8","vckw","","","","","","1416","0","audio_projekt/treffen1.wav"
"audio-button-response","15","1396047","0.0-6.9-0.9","vckw","","","","","","3325","1","audio_projekt/treffen1.wav"
"html-keyboard-response","16","1419247","0.0-7.0","vckw","","","","","","23197"," ","<h2>Teil 1: Unterscheidungsaufgabe</h2><div class=""myDiv""><p>In diesem Teil des Experimentes werden Sie im Abstand von 1.5 Sekunden <b>zwei W&ouml;rter</b> h&ouml;ren.</p><ul><li>Ihre Aufgabe ist es, festzustellen, ob diese W&ouml;rter <b>gleich oder unterschiedlich</b> sind. Wenn es einen Unterschied gibt, besteht dieser nur aus einem Vokal. </li> <li>Dr&uuml;cken Sie die <b>Taste Q</b>, wenn die W&ouml;rter gleich sind. Dr&uuml;cken Sie die <b>Taste P</b>, wenn die W&ouml;rter unterschiedlich sind.</li><li>Bitte warten Sie, bis Sie <b>beide Wörter gehört haben</b>, bevor Sie eine Taste drücken. Aber Achtung: Sie haben nur <b>5 Sekunden</b>, um eine Option auszuw&auml;hlen! &Uuml;berlegen Sie daher bitte nicht zu lange.</li></ul><br><p>Dr&uuml;cken Sie eine beliebige Taste, um ein paar Testversuche zu machen.</p></ul></div>"
"audio-keyboard-response","17","1423116","0.0-8.0-0.0","vckw","","","","","","null","null","audio_projekt/treffen1500triefen.wav"
"html-keyboard-response","18","1423740","0.0-8.0-1.0","vckw","","","","","","622","p","<div></div>"
"audio-keyboard-response","19","1428334","0.0-8.0-0.1","vckw","","","","","","null","null","audio_projekt/treffen1500treffen.wav"
"html-keyboard-response","20","1428775","0.0-8.0-1.1","vckw","","","","","","439","q","<div></div>"
"html-keyboard-response","21","1432538","0.0-9.0","vckw","","","","","","2961"," ","<p>Gut! Jetzt f&auml;ngt der erste Teil des Experiments an. Dieser Teil dauert ca. 10 Minuten.</p><br><p>Bitte dr&uuml;cken Sie eine beliebige Taste, um fortzufahren.<div style=""height:30px; width:100%""></div>"
"audio-keyboard-response","22","1436612","0.0-10.0-0.0","vckw","","","","","","null","null","audio_projekt/spulen1500spulen.wav"
"html-keyboard-response","23","1436733","0.0-10.0-1.0","vckw","","","","","","119","q","<div></div>"
"audio-keyboard-response","24","1440732","0.0-10.0-0.1","vckw","","","","","","null","null","audio_projekt/tour1500tuer.wav"
"html-keyboard-response","25","1441405","0.0-10.0-1.1","vckw","","","","","","669","p","<div></div>"
"audio-keyboard-response","26","1445932","0.0-10.0-0.2","vckw","","","","","","null","null","audio_projekt/tuer1500tour.wav"
"html-keyboard-response","27","1446504","0.0-10.0-1.2","vckw","","","","","","571","p","<div></div>"
"audio-keyboard-response","28","1451451","0.0-10.0-0.3","vckw","","","","","","null","null","audio_projekt/stiel1500stuhl.wav"
"html-keyboard-response","29","1452572","0.0-10.0-1.3","vckw","","","","","","1118","p","<div></div>"
"audio-keyboard-response","30","1457050","0.0-10.0-0.4","vckw","","","","","","null","null","audio_projekt/lieder1500leder.wav"
"html-keyboard-response","31","1457188","0.0-10.0-1.4","vckw","","","","","","136","p","<div></div>"
"audio-keyboard-response","32","1462210","0.0-10.0-0.5","vckw","","","","","","null","null","audio_projekt/spuelen1500spielen.wav"
"html-keyboard-response","33","1462415","0.0-10.0-1.5","vckw","","","","","","202","p","<div></div>"
"audio-keyboard-response","34","1466469","0.0-10.0-0.6","vckw","","","","","","null","null","audio_projekt/tuer1500tuer.wav"
"html-keyboard-response","35","1467006","0.0-10.0-1.6","vckw","","","","","","535","q","<div></div>"
"audio-keyboard-response","36","1471469","0.0-10.0-0.7","vckw","","","","","","null","null","audio_projekt/leder1500lieder.wav"
"html-keyboard-response","37","1471725","0.0-10.0-1.7","vckw","","","","","","254","p","<div></div>"
"audio-keyboard-response","38","1476148","0.0-10.0-0.8","vckw","","","","","","null","null","audio_projekt/leder1500leder.wav"
"html-keyboard-response","39","1476464","0.0-10.0-1.8","vckw","","","","","","314","q","<div></div>"
"audio-keyboard-response","40","1481585","0.0-10.0-0.9","vckw","","","","","","null","null","audio_projekt/spielen1500spulen.wav"
"html-keyboard-response","41","1481631","0.0-10.0-1.9","vckw","","","","","","45","p","<div></div>"
"audio-keyboard-response","42","1486224","0.0-10.0-0.10","vckw","","","","","","null","null","audio_projekt/blueten1500blueten.wav"
"html-keyboard-response","43","1486679","0.0-10.0-1.10","vckw","","","","","","452","q","<div></div>"
"audio-keyboard-response","44","1491583","0.0-10.0-0.11","vckw","","","","","","null","null","audio_projekt/spulen1500spuelen.wav"
"html-keyboard-response","45","1491795","0.0-10.0-1.11","vckw","","","","","","211","p","<div></div>"
"audio-keyboard-response","46","1496282","0.0-10.0-0.12","vckw","","","","","","null","null","audio_projekt/bluten1500blueten.wav"
"html-keyboard-response","47","1496455","0.0-10.0-1.12","vckw","","","","","","170","p","<div></div>"
"audio-keyboard-response","48","1501242","0.0-10.0-0.13","vckw","","","","","","null","null","audio_projekt/stuhl1500stuhl.wav"
"html-keyboard-response","49","1501520","0.0-10.0-1.13","vckw","","","","","","276","q","<div></div>"
"audio-keyboard-response","50","1505822","0.0-10.0-0.14","vckw","","","","","","null","null","audio_projekt/kiel1500kuehl.wav"
"html-keyboard-response","51","1506966","0.0-10.0-1.14","vckw","","","","","","1143","p","<div></div>"
"audio-keyboard-response","52","1511681","0.0-10.0-0.15","vckw","","","","","","null","null","audio_projekt/stuhl1500stiel.wav"
"html-keyboard-response","53","1511995","0.0-10.0-1.15","vckw","","","","","","312","p","<div></div>"
"audio-keyboard-response","54","1517400","0.0-10.0-0.16","vckw","","","","","","null","null","audio_projekt/spielen1500spuelen.wav"
"html-keyboard-response","55","1517448","0.0-10.0-1.16","vckw","","","","","","47","p","<div></div>"
"audio-keyboard-response","56","1521698","0.0-10.0-0.17","vckw","","","","","","null","null","audio_projekt/tier1500tier.wav"
"html-keyboard-response","57","1522882","0.0-10.0-1.17","vckw","","","","","","1181","q","<div></div>"
"audio-keyboard-response","58","1527058","0.0-10.0-0.18","vckw","","","","","","null","null","audio_projekt/buehne1500buehne.wav"
"html-keyboard-response","59","1527604","0.0-10.0-1.18","vckw","","","","","","542","q","<div></div>"
"audio-keyboard-response","60","1531418","0.0-10.0-0.19","vckw","","","","","","null","null","audio_projekt/stuhl1500stiel.wav"
"html-keyboard-response","61","1532073","0.0-10.0-1.19","vckw","","","","","","654","p","<div></div>"
"audio-keyboard-response","62","1535917","0.0-10.0-0.20","vckw","","","","","","null","null","audio_projekt/tour1500tier.wav"
"html-keyboard-response","63","1535950","0.0-10.0-1.20","vckw","","","","","","31","p","<div></div>"
"audio-keyboard-response","64","1540796","0.0-10.0-0.21","vckw","","","","","","null","null","audio_projekt/segel1500siegel.wav"
"html-keyboard-response","65","1541051","0.0-10.0-1.21","vckw","","","","","","254","p","<div></div>"
"audio-keyboard-response","66","1545637","0.0-10.0-0.22","vckw","","","","","","null","null","audio_projekt/bluten1500bluten.wav"
"html-keyboard-response","67","1545887","0.0-10.0-1.22","vckw","","","","","","248","q","<div></div>"
"audio-keyboard-response","68","1549317","0.0-10.0-0.23","vckw","","","","","","null","null","audio_projekt/blueten1500blueten.wav"
"html-keyboard-response","69","1549375","0.0-10.0-1.23","vckw","","","","","","57","q","<div></div>"
"audio-keyboard-response","70","1554356","0.0-10.0-0.24","vckw","","","","","","null","null","audio_projekt/segel1500segel.wav"
"html-keyboard-response","71","1555687","0.0-10.0-1.24","vckw","","","","","","1329","p","<div></div>"
"audio-keyboard-response","72","1560175","0.0-10.0-0.25","vckw","","","","","","null","null","audio_projekt/blueten1500bluten.wav"
"html-keyboard-response","73","1560537","0.0-10.0-1.25","vckw","","","","","","360","p","<div></div>"
"audio-keyboard-response","74","1563955","0.0-10.0-0.26","vckw","","","","","","null","null","audio_projekt/bluten1500bluten.wav"
"html-keyboard-response","75","1568965","0.0-10.0-1.26","vckw","","","","","","null","null","<div></div>"
"audio-keyboard-response","76","1573693","0.0-10.0-0.27","vckw","","","","","","null","null","audio_projekt/siegel1500segel.wav"
"html-keyboard-response","77","1574797","0.0-10.0-1.27","vckw","","","","","","1101","p","<div></div>"
"audio-keyboard-response","78","1579572","0.0-10.0-0.28","vckw","","","","","","null","null","audio_projekt/siegel1500siegel.wav"
"html-keyboard-response","79","1579825","0.0-10.0-1.28","vckw","","","","","","250","q","<div></div>"
"audio-keyboard-response","80","1583732","0.0-10.0-0.29","vckw","","","","","","null","null","audio_projekt/tour1500tour.wav"
"html-keyboard-response","81","1584193","0.0-10.0-1.29","vckw","","","","","","459","q","<div></div>"
"audio-keyboard-response","82","1587452","0.0-10.0-0.30","vckw","","","","","","null","null","audio_projekt/tuer1500tour.wav"
"html-keyboard-response","83","1587866","0.0-10.0-1.30","vckw","","","","","","413","p","<div></div>"
"audio-keyboard-response","84","1591911","0.0-10.0-0.31","vckw","","","","","","null","null","audio_projekt/spuelen1500spielen.wav"
"html-keyboard-response","85","1592056","0.0-10.0-1.31","vckw","","","","","","144","p","<div></div>"
"audio-keyboard-response","86","1596130","0.0-10.0-0.32","vckw","","","","","","null","null","audio_projekt/spulen1500spulen.wav"
"html-keyboard-response","87","1596255","0.0-10.0-1.32","vckw","","","","","","122","q","<div></div>"
"audio-keyboard-response","88","1599509","0.0-10.0-0.33","vckw","","","","","","null","null","audio_projekt/tuer1500tuer.wav"
"html-keyboard-response","89","1600187","0.0-10.0-1.33","vckw","","","","","","677","q","<div></div>"
"audio-keyboard-response","90","1604208","0.0-10.0-0.34","vckw","","","","","","null","null","audio_projekt/buehne1500biene.wav"
"html-keyboard-response","91","1604714","0.0-10.0-1.34","vckw","","","","","","504","p","<div></div>"
"audio-keyboard-response","92","1609387","0.0-10.0-0.35","vckw","","","","","","null","null","audio_projekt/spielen1500spielen.wav"
"html-keyboard-response","93","1609903","0.0-10.0-1.35","vckw","","","","","","514","q","<div></div>"
"audio-keyboard-response","94","1613167","0.0-10.0-0.36","vckw","","","","","","null","null","audio_projekt/tour1500tier.wav"
"html-keyboard-response","95","1614073","0.0-10.0-1.36","vckw","","","","","","904","p","<div></div>"
"audio-keyboard-response","96","1618506","0.0-10.0-0.37","vckw","","","","","","null","null","audio_projekt/kuehl1500kuehl.wav"
"html-keyboard-response","97","1618946","0.0-10.0-1.37","vckw","","","","","","438","q","<div></div>"
"audio-keyboard-response","98","1623085","0.0-10.0-0.38","vckw","","","","","","null","null","audio_projekt/biene1500buehne.wav"
"html-keyboard-response","99","1623659","0.0-10.0-1.38","vckw","","","","","","571","p","<div></div>"
"audio-keyboard-response","100","1627565","0.0-10.0-0.39","vckw","","","","","","null","null","audio_projekt/segel1500segel.wav"
"html-keyboard-response","101","1629867","0.0-10.0-1.39","vckw","","","","","","2300","p","<div></div>"
"audio-keyboard-response","102","1633903","0.0-10.0-0.40","vckw","","","","","","null","null","audio_projekt/spielen1500spuelen.wav"
"html-keyboard-response","103","1634455","0.0-10.0-1.40","vckw","","","","","","550","p","<div></div>"
"audio-keyboard-response","104","1639063","0.0-10.0-0.41","vckw","","","","","","null","null","audio_projekt/spuelen1500spulen.wav"
"html-keyboard-response","105","1639195","0.0-10.0-1.41","vckw","","","","","","131","p","<div></div>"
"audio-keyboard-response","106","1642623","0.0-10.0-0.42","vckw","","","","","","null","null","audio_projekt/buehne1500biene.wav"
"html-keyboard-response","107","1643026","0.0-10.0-1.42","vckw","","","","","","401","p","<div></div>"
"audio-keyboard-response","108","1647162","0.0-10.0-0.43","vckw","","","","","","null","null","audio_projekt/kiel1500kiel.wav"
"html-keyboard-response","109","1647952","0.0-10.0-1.43","vckw","","","","","","788","q","<div></div>"
"audio-keyboard-response","110","1651521","0.0-10.0-0.44","vckw","","","","","","null","null","audio_projekt/leder1500leder.wav"
"html-keyboard-response","111","1652317","0.0-10.0-1.44","vckw","","","","","","793","q","<div></div>"
"audio-keyboard-response","112","1656201","0.0-10.0-0.45","vckw","","","","","","null","null","audio_projekt/tier1500tour.wav"
"html-keyboard-response","113","1657300","0.0-10.0-1.45","vckw","","","","","","1097","p","<div></div>"
"audio-keyboard-response","114","1660581","0.0-10.0-0.46","vckw","","","","","","null","null","audio_projekt/tier1500tier.wav"
"html-keyboard-response","115","1661566","0.0-10.0-1.46","vckw","","","","","","982","q","<div></div>"
"audio-keyboard-response","116","1666220","0.0-10.0-0.47","vckw","","","","","","null","null","audio_projekt/spuelen1500spuelen.wav"
"html-keyboard-response","117","1666751","0.0-10.0-1.47","vckw","","","","","","529","q","<div></div>"
"audio-keyboard-response","118","1670919","0.0-10.0-0.48","vckw","","","","","","null","null","audio_projekt/biene1500biene.wav"
"html-keyboard-response","119","1671261","0.0-10.0-1.48","vckw","","","","","","340","q","<div></div>"
"audio-keyboard-response","120","1676018","0.0-10.0-0.49","vckw","","","","","","null","null","audio_projekt/spulen1500spielen.wav"
"html-keyboard-response","121","1676109","0.0-10.0-1.49","vckw","","","","","","88","p","<div></div>"
"audio-keyboard-response","122","1679677","0.0-10.0-0.50","vckw","","","","","","null","null","audio_projekt/lieder1500leder.wav"
"html-keyboard-response","123","1681343","0.0-10.0-1.50","vckw","","","","","","1664","p","<div></div>"
"audio-keyboard-response","124","1685737","0.0-10.0-0.51","vckw","","","","","","null","null","audio_projekt/lieder1500lieder.wav"
"html-keyboard-response","125","1686168","0.0-10.0-1.51","vckw","","","","","","430","q","<div></div>"
"audio-keyboard-response","126","1689577","0.0-10.0-0.52","vckw","","","","","","null","null","audio_projekt/biene1500buehne.wav"
"html-keyboard-response","127","1690638","0.0-10.0-1.52","vckw","","","","","","1060","p","<div></div>"
"audio-keyboard-response","128","1694675","0.0-10.0-0.53","vckw","","","","","","null","null","audio_projekt/spuelen1500spuelen.wav"
"html-keyboard-response","129","1697611","0.0-10.0-1.53","vckw","","","","","","2934","p","<div></div>"
"audio-keyboard-response","130","1701155","0.0-10.0-0.54","vckw","","","","","","null","null","audio_projekt/lieder1500lieder.wav"
"html-keyboard-response","131","1701927","0.0-10.0-1.54","vckw","","","","","","770","q","<div></div>"
"audio-keyboard-response","132","1705174","0.0-10.0-0.55","vckw","","","","","","null","null","audio_projekt/tier1500tour.wav"
"html-keyboard-response","133","1705458","0.0-10.0-1.55","vckw","","","","","","282","p","<div></div>"
"audio-keyboard-response","134","1708957","0.0-10.0-0.56","vckw","","","","","","null","null","audio_projekt/kiel1500kiel.wav"
"html-keyboard-response","135","1709427","0.0-10.0-1.56","vckw","","","","","","467","q","<div></div>"
"audio-keyboard-response","136","1712914","0.0-10.0-0.57","vckw","","","","","","null","null","audio_projekt/kuehl1500kuehl.wav"
"html-keyboard-response","137","1713753","0.0-10.0-1.57","vckw","","","","","","838","q","<div></div>"
"audio-keyboard-response","138","1717673","0.0-10.0-0.58","vckw","","","","","","null","null","audio_projekt/segel1500siegel.wav"
"html-keyboard-response","139","1717919","0.0-10.0-1.58","vckw","","","","","","241","p","<div></div>"
"audio-keyboard-response","140","1721192","0.0-10.0-0.59","vckw","","","","","","null","null","audio_projekt/tour1500tour.wav"
"html-keyboard-response","141","1722308","0.0-10.0-1.59","vckw","","","","","","1114","q","<div></div>"
"audio-keyboard-response","142","1726132","0.0-10.0-0.60","vckw","","","","","","null","null","audio_projekt/stuhl1500stuhl.wav"
"html-keyboard-response","143","1726988","0.0-10.0-1.60","vckw","","","","","","853","q","<div></div>"
"audio-keyboard-response","144","1731651","0.0-10.0-0.61","vckw","","","","","","null","null","audio_projekt/kuehl1500kiel.wav"
"html-keyboard-response","145","1732068","0.0-10.0-1.61","vckw","","","","","","415","p","<div></div>"
"audio-keyboard-response","146","1735630","0.0-10.0-0.62","vckw","","","","","","null","null","audio_projekt/leder1500lieder.wav"
"html-keyboard-response","147","1735933","0.0-10.0-1.62","vckw","","","","","","302","p","<div></div>"
"audio-keyboard-response","148","1739391","0.0-10.0-0.63","vckw","","","","","","null","null","audio_projekt/bluten1500blueten.wav"
"html-keyboard-response","149","1740025","0.0-10.0-1.63","vckw","","","","","","632","p","<div></div>"
"audio-keyboard-response","150","1743450","0.0-10.0-0.64","vckw","","","","","","null","null","audio_projekt/buehne1500buehne.wav"
"html-keyboard-response","151","1744544","0.0-10.0-1.64","vckw","","","","","","1093","q","<div></div>"
"audio-keyboard-response","152","1748589","0.0-10.0-0.65","vckw","","","","","","null","null","audio_projekt/spielen1500spielen.wav"
"html-keyboard-response","153","1749600","0.0-10.0-1.65","vckw","","","","","","1009","q","<div></div>"
"audio-keyboard-response","154","1752869","0.0-10.0-0.66","vckw","","","","","","null","null","audio_projekt/tour1500tuer.wav"
"html-keyboard-response","155","1753017","0.0-10.0-1.66","vckw","","","","","","146","p","<div></div>"
"audio-keyboard-response","156","1756968","0.0-10.0-0.67","vckw","","","","","","null","null","audio_projekt/siegel1500segel.wav"
"html-keyboard-response","157","1757329","0.0-10.0-1.67","vckw","","","","","","359","p","<div></div>"
"audio-keyboard-response","158","1761148","0.0-10.0-0.68","vckw","","","","","","null","null","audio_projekt/stiel1500stuhl.wav"
"html-keyboard-response","159","1761737","0.0-10.0-1.68","vckw","","","","","","587","p","<div></div>"
"audio-keyboard-response","160","1765806","0.0-10.0-0.69","vckw","","","","","","null","null","audio_projekt/spielen1500spulen.wav"
"html-keyboard-response","161","1766217","0.0-10.0-1.69","vckw","","","","","","409","p","<div></div>"
"audio-keyboard-response","162","1769726","0.0-10.0-0.70","vckw","","","","","","null","null","audio_projekt/kuehl1500kiel.wav"
"html-keyboard-response","163","1770488","0.0-10.0-1.70","vckw","","","","","","760","p","<div></div>"
"audio-keyboard-response","164","1774006","0.0-10.0-0.71","vckw","","","","","","null","null","audio_projekt/kiel1500kuehl.wav"
"html-keyboard-response","165","1774243","0.0-10.0-1.71","vckw","","","","","","236","p","<div></div>"
"audio-keyboard-response","166","1777645","0.0-10.0-0.72","vckw","","","","","","null","null","audio_projekt/biene1500biene.wav"
"html-keyboard-response","167","1777980","0.0-10.0-1.72","vckw","","","","","","333","q","<div></div>"
"audio-keyboard-response","168","1781885","0.0-10.0-0.73","vckw","","","","","","null","null","audio_projekt/siegel1500siegel.wav"
"html-keyboard-response","169","1782448","0.0-10.0-1.73","vckw","","","","","","561","q","<div></div>"
"audio-keyboard-response","170","1786305","0.0-10.0-0.74","vckw","","","","","","null","null","audio_projekt/spulen1500spuelen.wav"
"html-keyboard-response","171","1786757","0.0-10.0-1.74","vckw","","","","","","451","p","<div></div>"
"audio-keyboard-response","172","1790207","0.0-10.0-0.75","vckw","","","","","","null","null","audio_projekt/blueten1500bluten.wav"
"html-keyboard-response","173","1790836","0.0-10.0-1.75","vckw","","","","","","627","p","<div></div>"
"audio-keyboard-response","174","1795645","0.0-10.0-0.76","vckw","","","","","","null","null","audio_projekt/stiel1500stiel.wav"
"html-keyboard-response","175","1796043","0.0-10.0-1.76","vckw","","","","","","395","q","<div></div>"
"audio-keyboard-response","176","1799905","0.0-10.0-0.77","vckw","","","","","","null","null","audio_projekt/spuelen1500spulen.wav"
"html-keyboard-response","177","1799967","0.0-10.0-1.77","vckw","","","","","","61","p","<div></div>"
"audio-keyboard-response","178","1803744","0.0-10.0-0.78","vckw","","","","","","null","null","audio_projekt/stiel1500stiel.wav"
"html-keyboard-response","179","1804028","0.0-10.0-1.78","vckw","","","","","","282","q","<div></div>"
"audio-keyboard-response","180","1808104","0.0-10.0-0.79","vckw","","","","","","null","null","audio_projekt/spulen1500spielen.wav"
"html-keyboard-response","181","1808389","0.0-10.0-1.79","vckw","","","","","","283","p","<div></div>"
"html-keyboard-response","182","1811367","0.0-11.0","vckw","","","","","","2176"," ","<h2>Pause</h2><div class=""myDiv""><p>Gut gemacht! Jetzt k&ouml;nnen Sie eine kleine Pause machen.</p></div><div><img src=""pics/coffee.png"" title=""Machen Sie eine Pause..."" width=""150"" height=""150"" class=""center""></div><div style=""height:20px; width:100%""></div><p>Wenn Sie bereit sind, dr&uuml;cken Sie eine beliebige Taste, um fortzufahren.</p>"
"html-keyboard-response","183","1825082","0.0-12.0","vckw","","","","","","13713"," ","<h2>Teil 2: Identifikationsaufgabe: Vorbereitung 1</h2><div class=""myDiv""><p>In diesem Teil des Experimentes werden Sie nur ein Wort h&ouml;ren. </p><p>Anschlie&szlig;end werden zwei Bilder gezeigt. W&auml;hlen Sie das Bild aus, das das Wort darstellt.</p><p>Bevor die Aufgabe beginnt, werden die Bilder mit den entsprechenden W&ouml;rtern angezeigt. Sie werden jedes Bild zweimal sehen.</p><p>Dr&uuml;cken Sie bitte eine beliebige Taste, um die Bilder zu sehen.</p>"
"audio-button-response","184","1830477","0.0-13.0-0.0-0.0","vckw","","","","","","5125","0","audio_projekt/blueten.wav"
"audio-button-response","185","1833349","0.0-13.0-0.0-0.1","vckw","","","","","","2641","0","audio_projekt/beten1.wav"
"audio-button-response","186","1835227","0.0-13.0-0.0-0.2","vckw","","","","","","1709","0","audio_projekt/tuer.wav"
"audio-button-response","187","1837448","0.0-13.0-0.0-0.3","vckw","","","","","","1990","0","audio_projekt/bluten.wav"
"audio-button-response","188","1839927","0.0-13.0-0.0-0.4","vckw","","","","","","2268","0","audio_projekt/buehne.wav"
"audio-button-response","189","1842449","0.0-13.0-0.0-0.5","vckw","","","","","","2327","0","audio_projekt/leder.wav"
"audio-button-response","190","1844977","0.0-13.0-0.0-0.6","vckw","","","","","","2295","0","audio_projekt/bieten1.wav"
"audio-button-response","191","1846746","0.0-13.0-0.0-0.7","vckw","","","","","","1451","0","audio_projekt/spulen.wav"
"audio-button-response","192","1849277","0.0-13.0-0.0-0.8","vckw","","","","","","2316","0","audio_projekt/biene.wav"
"audio-button-response","193","1852668","0.0-13.0-0.0-0.9","vckw","","","","","","2899","0","audio_projekt/segel.wav"
"audio-button-response","194","1856469","0.0-13.0-0.0-0.10","vckw","","","","","","3488","0","audio_projekt/stuhl.wav"
"audio-button-response","195","1858734","0.0-13.0-0.0-0.11","vckw","","","","","","1958","0","audio_projekt/tier.wav"
"audio-button-response","196","1861144","0.0-13.0-0.0-0.12","vckw","","","","","","2192","0","audio_projekt/treffen2.wav"
"audio-button-response","197","1863062","0.0-13.0-0.0-0.13","vckw","","","","","","1517","0","audio_projekt/stiel.wav"
"audio-button-response","198","1865282","0.0-13.0-0.0-0.14","vckw","","","","","","1952","0","audio_projekt/siegel.wav"
"audio-button-response","199","1867213","0.0-13.0-0.0-0.15","vckw","","","","","","1799","0","audio_projekt/tour.wav"
"audio-button-response","200","1869732","0.0-13.0-0.0-0.16","vckw","","","","","","2370","0","audio_projekt/lieder.wav"
"audio-button-response","201","1872485","0.0-13.0-0.0-0.17","vckw","","","","","","2410","0","audio_projekt/spuelen2.wav"
"audio-button-response","202","1874962","0.0-13.0-0.0-0.18","vckw","","","","","","2139","0","audio_projekt/kiel.wav"
"audio-button-response","203","1877644","0.0-13.0-0.0-0.19","vckw","","","","","","2452","0","audio_projekt/kuehl.wav"
"audio-button-response","204","1879899","0.0-13.0-0.0-0.20","vckw","","","","","","1900","0","audio_projekt/spielen2.wav"
"audio-button-response","205","1883721","0.0-13.0-0.0-0.21","vckw","","","","","","3295","0","audio_projekt/triefen1.wav"
"audio-button-response","206","1886003","0.0-13.0-0.1-0.22","vckw","","","","","","2277","0","audio_projekt/blueten.wav"
"audio-button-response","207","1888348","0.0-13.0-0.1-0.23","vckw","","","","","","2339","0","audio_projekt/beten1.wav"
"audio-button-response","208","1890153","0.0-13.0-0.1-0.24","vckw","","","","","","1800","0","audio_projekt/tuer.wav"
"audio-button-response","209","1891651","0.0-13.0-0.1-0.25","vckw","","","","","","1490","0","audio_projekt/bluten.wav"
"audio-button-response","210","1893304","0.0-13.0-0.1-0.26","vckw","","","","","","1648","0","audio_projekt/buehne.wav"
"audio-button-response","211","1894590","0.0-13.0-0.1-0.27","vckw","","","","","","1280","0","audio_projekt/leder.wav"
"audio-button-response","212","1896327","0.0-13.0-0.1-0.28","vckw","","","","","","1730","0","audio_projekt/bieten1.wav"
"audio-button-response","213","1897705","0.0-13.0-0.1-0.29","vckw","","","","","","1375","0","audio_projekt/spulen.wav"
"audio-button-response","214","1899301","0.0-13.0-0.1-0.30","vckw","","","","","","1593","0","audio_projekt/biene.wav"
"audio-button-response","215","1900902","0.0-13.0-0.1-0.31","vckw","","","","","","1597","0","audio_projekt/segel.wav"
"audio-button-response","216","1902952","0.0-13.0-0.1-0.32","vckw","","","","","","2044","0","audio_projekt/stuhl.wav"
"audio-button-response","217","1904511","0.0-13.0-0.1-0.33","vckw","","","","","","1554","0","audio_projekt/tier.wav"
"audio-button-response","218","1906049","0.0-13.0-0.1-0.34","vckw","","","","","","1533","0","audio_projekt/treffen2.wav"
"audio-button-response","219","1907652","0.0-13.0-0.1-0.35","vckw","","","","","","1597","0","audio_projekt/stiel.wav"
"audio-button-response","220","1909271","0.0-13.0-0.1-0.36","vckw","","","","","","1613","0","audio_projekt/siegel.wav"
"audio-button-response","221","1910821","0.0-13.0-0.1-0.37","vckw","","","","","","1543","0","audio_projekt/tour.wav"
"audio-button-response","222","1912203","0.0-13.0-0.1-0.38","vckw","","","","","","1375","0","audio_projekt/lieder.wav"
"audio-button-response","223","1914001","0.0-13.0-0.1-0.39","vckw","","","","","","1790","0","audio_projekt/spuelen2.wav"
"audio-button-response","224","1915747","0.0-13.0-0.1-0.40","vckw","","","","","","1740","0","audio_projekt/kiel.wav"
"audio-button-response","225","1917168","0.0-13.0-0.1-0.41","vckw","","","","","","1416","0","audio_projekt/kuehl.wav"
"audio-button-response","226","1918595","0.0-13.0-0.1-0.42","vckw","","","","","","1424","0","audio_projekt/spielen2.wav"
"audio-button-response","227","1920118","0.0-13.0-0.1-0.43","vckw","","","","","","1517","0","audio_projekt/triefen1.wav"
"html-keyboard-response","228","1931467","0.0-14.0","vckw","","","","","","11346"," ","<h2>Teil 2: Identifikationsaufgabe: Vorbereitung 2</h2><div class=""myDiv""><p>Jetzt können Sie einen kurzen Probedurchlauf f&uuml;r diesen Teil des Experiments machen.</p><p>W&auml;hlen Sie das Bild aus, das das Wort darstellt. <ul><li>Dr&uuml;cken Sie die <b>Taste Q</b>, um das <b>linke</b> Bild auszuw&auml;hlen. Dr&uuml;cken Sie die <b>Taste P</b>, um das <b>rechte</b> Bild auszuw&auml;hlen.</li> <li>Sie haben 5 Sekunden Zeit, um sich f&uuml;r eines der Bilder zu entscheiden. </li><li>Bitte warten Sie, bis Sie <b>das ganze Wort gehört haben</b>, bevor Sie eine Taste drücken.</li></ul></p><p>Dr&uuml;cken Sie eine beliebige Taste, um den Probedurchlauf anzufangen.</p>"
"audio-keyboard-response","229","1932246","0.0-15.0-0.0","vckw","","","","","","null","null","audio_projekt/treffen2.wav"
"image-keyboard-response","230","1934008","0.0-15.0-1.0","vckw","","","","","","1757","p","pics/scaled/triefen_treffen.png"
"audio-keyboard-response","231","1935446","0.0-15.0-0.1","vckw","","","","","","null","null","audio_projekt/beten1.wav"
"image-keyboard-response","232","1936128","0.0-15.0-1.1","vckw","","","","","","679","p","pics/scaled/bieten_beten.jpg"
"html-keyboard-response","233","1938814","0.0-16.0","vckw","","","","","","1868"," ","<h2>Teil 2: Identifikationsaufgabe</h2><p>Jetzt sind Sie darauf vorbereitet, die Identifikationsaufgabe auszuführen.</p><p>Sind Sie bereit? Dann dr&uuml;cken Sie eine beliebige Taste, um anzufangen.</p>"
"audio-keyboard-response","234","1939465","0.0-17.0-0.0","vckw","","","","","","null","null","audio_projekt/kiel.wav"
"image-keyboard-response","235","1939912","0.0-17.0-1.0","vckw","","","","","","445","q","pics/scaled/kiel_kuehl.jpg"
"audio-keyboard-response","236","1941665","0.0-17.0-0.1","vckw","","","","","","null","null","audio_projekt/spulen.wav"
"image-keyboard-response","237","1942091","0.0-17.0-1.1","vckw","","","","","","423","q","pics/scaled/spielen_spulen.jpg"
"audio-keyboard-response","238","1943805","0.0-17.0-0.2","vckw","","","","","","null","null","audio_projekt/spuelen2.wav"
"image-keyboard-response","239","1943937","0.0-17.0-1.2","vckw","","","","","","128","p","pics/scaled/spielen_spuelen.jpg"
"audio-keyboard-response","240","1945325","0.0-17.0-0.3","vckw","","","","","","null","null","audio_projekt/biene.wav"
"image-keyboard-response","241","1945898","0.0-17.0-1.3","vckw","","","","","","570","q","pics/scaled/biene_buehne.png"
"audio-keyboard-response","242","1947525","0.0-17.0-0.4","vckw","","","","","","null","null","audio_projekt/stuhl.wav"
"image-keyboard-response","243","1947810","0.0-17.0-1.4","vckw","","","","","","281","p","pics/scaled/stiel2_stuhl.jpg"
"audio-keyboard-response","244","1949245","0.0-17.0-0.5","vckw","","","","","","null","null","audio_projekt/blueten.wav"
"image-keyboard-response","245","1949609","0.0-17.0-1.5","vckw","","","","","","360","q","pics/scaled/bluten_blueten.jpg"
"audio-keyboard-response","246","1950984","0.0-17.0-0.6","vckw","","","","","","null","null","audio_projekt/biene.wav"
"image-keyboard-response","247","1951296","0.0-17.0-1.6","vckw","","","","","","307","q","pics/scaled/biene_buehne.png"
"audio-keyboard-response","248","1952644","0.0-17.0-0.7","vckw","","","","","","null","null","audio_projekt/tour.wav"
"image-keyboard-response","249","1952918","0.0-17.0-1.7","vckw","","","","","","271","p","pics/scaled/tier_tour.jpg"
"audio-keyboard-response","250","1954583","0.0-17.0-0.8","vckw","","","","","","null","null","audio_projekt/siegel.wav"
"image-keyboard-response","251","1956675","0.0-17.0-1.8","vckw","","","","","","2088","p","pics/scaled/siegel_segel.jpg"
"audio-keyboard-response","252","1958023","0.0-17.0-0.9","vckw","","","","","","null","null","audio_projekt/tier.wav"
"image-keyboard-response","253","1958353","0.0-17.0-1.9","vckw","","","","","","327","q","pics/scaled/tier_tour.jpg"
"audio-keyboard-response","254","1959823","0.0-17.0-0.10","vckw","","","","","","null","null","audio_projekt/kuehl.wav"
"image-keyboard-response","255","1960356","0.0-17.0-1.10","vckw","","","","","","530","p","pics/scaled/kiel_kuehl.jpg"
"audio-keyboard-response","256","1962083","0.0-17.0-0.11","vckw","","","","","","null","null","audio_projekt/spulen.wav"
"image-keyboard-response","257","1962151","0.0-17.0-1.11","vckw","","","","","","65","q","pics/scaled/spulen_spuelen.jpg"
"audio-keyboard-response","258","1963883","0.0-17.0-0.12","vckw","","","","","","null","null","audio_projekt/spulen.wav"
"image-keyboard-response","259","1964017","0.0-17.0-1.12","vckw","","","","","","131","q","pics/scaled/spielen_spulen.jpg"
"audio-keyboard-response","260","1965683","0.0-17.0-0.13","vckw","","","","","","null","null","audio_projekt/segel.wav"
"image-keyboard-response","261","1965906","0.0-17.0-1.13","vckw","","","","","","221","q","pics/scaled/siegel_segel.jpg"
"audio-keyboard-response","262","1967342","0.0-17.0-0.14","vckw","","","","","","null","null","audio_projekt/kuehl.wav"
"image-keyboard-response","263","1967835","0.0-17.0-1.14","vckw","","","","","","490","p","pics/scaled/kiel_kuehl.jpg"
"audio-keyboard-response","264","1969561","0.0-17.0-0.15","vckw","","","","","","null","null","audio_projekt/spuelen2.wav"
"image-keyboard-response","265","1969795","0.0-17.0-1.15","vckw","","","","","","230","p","pics/scaled/spulen_spuelen.jpg"
"audio-keyboard-response","266","1971221","0.0-17.0-0.16","vckw","","","","","","null","null","audio_projekt/blueten.wav"
"image-keyboard-response","267","1971798","0.0-17.0-1.16","vckw","","","","","","574","q","pics/scaled/bluten_blueten.jpg"
"audio-keyboard-response","268","1973320","0.0-17.0-0.17","vckw","","","","","","null","null","audio_projekt/lieder.wav"
"image-keyboard-response","269","1973601","0.0-17.0-1.17","vckw","","","","","","277","p","pics/scaled/lieder_leder.jpg"
"audio-keyboard-response","270","1975061","0.0-17.0-0.18","vckw","","","","","","null","null","audio_projekt/lieder.wav"
"image-keyboard-response","271","1975318","0.0-17.0-1.18","vckw","","","","","","254","p","pics/scaled/lieder_leder.jpg"
"audio-keyboard-response","272","1976740","0.0-17.0-0.19","vckw","","","","","","null","null","audio_projekt/buehne.wav"
"image-keyboard-response","273","1976991","0.0-17.0-1.19","vckw","","","","","","249","p","pics/scaled/biene_buehne.png"
"audio-keyboard-response","274","1978720","0.0-17.0-0.20","vckw","","","","","","null","null","audio_projekt/spielen2.wav"
"image-keyboard-response","275","1978909","0.0-17.0-1.20","vckw","","","","","","185","p","pics/scaled/spielen_spulen.jpg"
"audio-keyboard-response","276","1980580","0.0-17.0-0.21","vckw","","","","","","null","null","audio_projekt/siegel.wav"
"image-keyboard-response","277","1981089","0.0-17.0-1.21","vckw","","","","","","505","p","pics/scaled/siegel_segel.jpg"
"audio-keyboard-response","278","1982419","0.0-17.0-0.22","vckw","","","","","","null","null","audio_projekt/tour.wav"
"image-keyboard-response","279","1982635","0.0-17.0-1.22","vckw","","","","","","214","p","pics/scaled/tier_tour.jpg"
"audio-keyboard-response","280","1983978","0.0-17.0-0.23","vckw","","","","","","null","null","audio_projekt/tuer.wav"
"image-keyboard-response","281","1984424","0.0-17.0-1.23","vckw","","","","","","443","p","pics/scaled/tuer_tour.jpg"
"audio-keyboard-response","282","1985898","0.0-17.0-0.24","vckw","","","","","","null","null","audio_projekt/leder.wav"
"image-keyboard-response","283","1986131","0.0-17.0-1.24","vckw","","","","","","229","q","pics/scaled/lieder_leder.jpg"
"audio-keyboard-response","284","1987899","0.0-17.0-0.25","vckw","","","","","","null","null","audio_projekt/spulen.wav"
"image-keyboard-response","285","1987921","0.0-17.0-1.25","vckw","","","","","","18","q","pics/scaled/spulen_spuelen.jpg"
"audio-keyboard-response","286","1989378","0.0-17.0-0.26","vckw","","","","","","null","null","audio_projekt/blueten.wav"
"image-keyboard-response","287","1989541","0.0-17.0-1.26","vckw","","","","","","161","q","pics/scaled/bluten_blueten.jpg"
"audio-keyboard-response","288","1991268","0.0-17.0-0.27","vckw","","","","","","null","null","audio_projekt/spuelen2.wav"
"image-keyboard-response","289","1992630","0.0-17.0-1.27","vckw","","","","","","1359","p","pics/scaled/spulen_spuelen.jpg"
"audio-keyboard-response","290","1994008","0.0-17.0-0.28","vckw","","","","","","null","null","audio_projekt/tuer.wav"
"image-keyboard-response","291","1994279","0.0-17.0-1.28","vckw","","","","","","268","p","pics/scaled/tuer_tour.jpg"
"audio-keyboard-response","292","1995709","0.0-17.0-0.29","vckw","","","","","","null","null","audio_projekt/bluten.wav"
"image-keyboard-response","293","1995856","0.0-17.0-1.29","vckw","","","","","","144","p","pics/scaled/bluten_blueten.jpg"
"audio-keyboard-response","294","1997368","0.0-17.0-0.30","vckw","","","","","","null","null","audio_projekt/kuehl.wav"
"image-keyboard-response","295","1997579","0.0-17.0-1.30","vckw","","","","","","207","p","pics/scaled/kiel_kuehl.jpg"
"audio-keyboard-response","296","1998988","0.0-17.0-0.31","vckw","","","","","","null","null","audio_projekt/biene.wav"
"image-keyboard-response","297","1999214","0.0-17.0-1.31","vckw","","","","","","223","q","pics/scaled/biene_buehne.png"
"audio-keyboard-response","298","2000868","0.0-17.0-0.32","vckw","","","","","","null","null","audio_projekt/stiel.wav"
"image-keyboard-response","299","2000962","0.0-17.0-1.32","vckw","","","","","","92","q","pics/scaled/stiel2_stuhl.jpg"
"audio-keyboard-response","300","2002667","0.0-17.0-0.33","vckw","","","","","","null","null","audio_projekt/spuelen2.wav"
"image-keyboard-response","301","2003308","0.0-17.0-1.33","vckw","","","","","","637","p","pics/scaled/spielen_spuelen.jpg"
"audio-keyboard-response","302","2005206","0.0-17.0-0.34","vckw","","","","","","null","null","audio_projekt/spielen.wav"
"image-keyboard-response","303","2005340","0.0-17.0-1.34","vckw","","","","","","131","q","pics/scaled/spielen_spuelen.jpg"
"audio-keyboard-response","304","2006687","0.0-17.0-0.35","vckw","","","","","","null","null","audio_projekt/tour.wav"
"image-keyboard-response","305","2007055","0.0-17.0-1.35","vckw","","","","","","365","q","pics/scaled/tuer_tour.jpg"
"audio-keyboard-response","306","2008446","0.0-17.0-0.36","vckw","","","","","","null","null","audio_projekt/bluten.wav"
"image-keyboard-response","307","2008693","0.0-17.0-1.36","vckw","","","","","","244","p","pics/scaled/bluten_blueten.jpg"
"audio-keyboard-response","308","2010387","0.0-17.0-0.37","vckw","","","","","","null","null","audio_projekt/segel.wav"
"image-keyboard-response","309","2010491","0.0-17.0-1.37","vckw","","","","","","102","q","pics/scaled/siegel_segel.jpg"
"audio-keyboard-response","310","2011806","0.0-17.0-0.38","vckw","","","","","","null","null","audio_projekt/tour.wav"
"image-keyboard-response","311","2012227","0.0-17.0-1.38","vckw","","","","","","417","q","pics/scaled/tuer_tour.jpg"
"audio-keyboard-response","312","2013706","0.0-17.0-0.39","vckw","","","","","","null","null","audio_projekt/leder.wav"
"image-keyboard-response","313","2013966","0.0-17.0-1.39","vckw","","","","","","256","q","pics/scaled/lieder_leder.jpg"
"audio-keyboard-response","314","2015726","0.0-17.0-0.40","vckw","","","","","","null","null","audio_projekt/spulen.wav"
"image-keyboard-response","315","2016347","0.0-17.0-1.40","vckw","","","","","","618","q","pics/scaled/spulen_spuelen.jpg"
"audio-keyboard-response","316","2017706","0.0-17.0-0.41","vckw","","","","","","null","null","audio_projekt/tuer.wav"
"image-keyboard-response","317","2017969","0.0-17.0-1.41","vckw","","","","","","259","p","pics/scaled/tuer_tour.jpg"
"audio-keyboard-response","318","2019605","0.0-17.0-0.42","vckw","","","","","","null","null","audio_projekt/stuhl.wav"
"image-keyboard-response","319","2019800","0.0-17.0-1.42","vckw","","","","","","192","p","pics/scaled/stiel2_stuhl.jpg"
"audio-keyboard-response","320","2021585","0.0-17.0-0.43","vckw","","","","","","null","null","audio_projekt/spielen2.wav"
"image-keyboard-response","321","2021666","0.0-17.0-1.43","vckw","","","","","","77","p","pics/scaled/spielen_spulen.jpg"
"audio-keyboard-response","322","2023125","0.0-17.0-0.44","vckw","","","","","","null","null","audio_projekt/kiel.wav"
"image-keyboard-response","323","2023334","0.0-17.0-1.44","vckw","","","","","","206","q","pics/scaled/kiel_kuehl.jpg"
"audio-keyboard-response","324","2024970","0.0-17.0-0.45","vckw","","","","","","null","null","audio_projekt/stuhl.wav"
"image-keyboard-response","325","2025061","0.0-17.0-1.45","vckw","","","","","","89","p","pics/scaled/stiel2_stuhl.jpg"
"audio-keyboard-response","326","2026429","0.0-17.0-0.46","vckw","","","","","","null","null","audio_projekt/tier.wav"
"image-keyboard-response","327","2026713","0.0-17.0-1.46","vckw","","","","","","281","q","pics/scaled/tier_tour.jpg"
"audio-keyboard-response","328","2028109","0.0-17.0-0.47","vckw","","","","","","null","null","audio_projekt/buehne.wav"
"image-keyboard-response","329","2028325","0.0-17.0-1.47","vckw","","","","","","212","p","pics/scaled/biene_buehne.png"
"audio-keyboard-response","330","2029669","0.0-17.0-0.48","vckw","","","","","","null","null","audio_projekt/tour.wav"
"image-keyboard-response","331","2030040","0.0-17.0-1.48","vckw","","","","","","368","q","pics/scaled/tuer_tour.jpg"
"audio-keyboard-response","332","2031429","0.0-17.0-0.49","vckw","","","","","","null","null","audio_projekt/buehne.wav"
"image-keyboard-response","333","2031688","0.0-17.0-1.49","vckw","","","","","","256","p","pics/scaled/biene_buehne.png"
"audio-keyboard-response","334","2033348","0.0-17.0-0.50","vckw","","","","","","null","null","audio_projekt/segel.wav"
"image-keyboard-response","335","2033546","0.0-17.0-1.50","vckw","","","","","","193","q","pics/scaled/siegel_segel.jpg"
"audio-keyboard-response","336","2035288","0.0-17.0-0.51","vckw","","","","","","null","null","audio_projekt/spielen.wav"
"image-keyboard-response","337","2035348","0.0-17.0-1.51","vckw","","","","","","57","q","pics/scaled/spielen_spuelen.jpg"
"audio-keyboard-response","338","2037087","0.0-17.0-0.52","vckw","","","","","","null","null","audio_projekt/spuelen2.wav"
"image-keyboard-response","339","2037599","0.0-17.0-1.52","vckw","","","","","","509","p","pics/scaled/spulen_spuelen.jpg"
"audio-keyboard-response","340","2039087","0.0-17.0-0.53","vckw","","","","","","null","null","audio_projekt/leder.wav"
"image-keyboard-response","341","2039344","0.0-17.0-1.53","vckw","","","","","","253","q","pics/scaled/lieder_leder.jpg"
"audio-keyboard-response","342","2041106","0.0-17.0-0.54","vckw","","","","","","null","null","audio_projekt/spielen2.wav"
"image-keyboard-response","343","2041158","0.0-17.0-1.54","vckw","","","","","","29","p","pics/scaled/spielen_spulen.jpg"
"audio-keyboard-response","344","2042626","0.0-17.0-0.55","vckw","","","","","","null","null","audio_projekt/bluten.wav"
"image-keyboard-response","345","2042919","0.0-17.0-1.55","vckw","","","","","","288","p","pics/scaled/bluten_blueten.jpg"
"audio-keyboard-response","346","2044566","0.0-17.0-0.56","vckw","","","","","","null","null","audio_projekt/stiel.wav"
"image-keyboard-response","347","2044762","0.0-17.0-1.56","vckw","","","","","","192","q","pics/scaled/stiel2_stuhl.jpg"
"audio-keyboard-response","348","2046139","0.0-17.0-0.57","vckw","","","","","","null","null","audio_projekt/tour.wav"
"image-keyboard-response","349","2046456","0.0-17.0-1.57","vckw","","","","","","315","p","pics/scaled/tier_tour.jpg"
"audio-keyboard-response","350","2048199","0.0-17.0-0.58","vckw","","","","","","null","null","audio_projekt/spuelen2.wav"
"image-keyboard-response","351","2048468","0.0-17.0-1.58","vckw","","","","","","265","p","pics/scaled/spielen_spuelen.jpg"
"audio-keyboard-response","352","2049939","0.0-17.0-0.59","vckw","","","","","","null","null","audio_projekt/kiel.wav"
"image-keyboard-response","353","2050261","0.0-17.0-1.59","vckw","","","","","","319","q","pics/scaled/kiel_kuehl.jpg"
"audio-keyboard-response","354","2051878","0.0-17.0-0.60","vckw","","","","","","null","null","audio_projekt/stiel.wav"
"image-keyboard-response","355","2052230","0.0-17.0-1.60","vckw","","","","","","349","q","pics/scaled/stiel2_stuhl.jpg"
"audio-keyboard-response","356","2053958","0.0-17.0-0.61","vckw","","","","","","null","null","audio_projekt/spielen.wav"
"image-keyboard-response","357","2054025","0.0-17.0-1.61","vckw","","","","","","64","q","pics/scaled/spielen_spuelen.jpg"
"audio-keyboard-response","358","2055518","0.0-17.0-0.62","vckw","","","","","","null","null","audio_projekt/lieder.wav"
"image-keyboard-response","359","2055839","0.0-17.0-1.62","vckw","","","","","","317","p","pics/scaled/lieder_leder.jpg"
"audio-keyboard-response","360","2057198","0.0-17.0-0.63","vckw","","","","","","null","null","audio_projekt/tier.wav"
"image-keyboard-response","361","2057655","0.0-17.0-1.63","vckw","","","","","","452","q","pics/scaled/tier_tour.jpg"
"audio-keyboard-response","362","2059338","0.0-17.0-0.64","vckw","","","","","","null","null","audio_projekt/siegel.wav"
"image-keyboard-response","363","2059940","0.0-17.0-1.64","vckw","","","","","","599","p","pics/scaled/siegel_segel.jpg"
"audio-keyboard-response","364","2061697","0.0-17.0-0.65","vckw","","","","","","null","null","audio_projekt/spulen.wav"
"image-keyboard-response","365","2061991","0.0-17.0-1.65","vckw","","","","","","288","q","pics/scaled/spielen_spulen.jpg"
