"trial_type","trial_index","time_elapsed","internal_node_id","subject","success","timeout","failed_images","failed_audio","failed_video","rt","response","stimulus"
"pavlovia","0","597","0.0-0.0","duvs","","","","","","","",""
"preload","1","598","0.0-1.0","duvs","true","false","[]","[]","[]","","",""
"survey-html-form","2","12425","0.0-2.0","duvs","","","","","","11822","{""code"":""65afc6a7e77791b8f80e72d6""}",""
"html-button-response","3","330484","0.0-3.0","duvs","","","","","","318053","0","<h2>Willkommen zum Experiment!</h2><div class=""myDiv""><p>Vielen Dank f&uuml;r Ihr Interesse an dieser Studie. Wir bitten Sie <strong>Kopfh&ouml;rer</strong> daf&uuml;r zu verwenden.</p></div><div><img src=""pics/headphones.png"" title=""Earbuds are also fine"" width=""250"" height=""200"" class=""center""></div><div class=""myDiv""><p>Das Experiment besteht aus zwei Teilen:</p> <ol> <li>Eine <strong>Unterscheidungsaufgabe,</strong> in der Sie zwei W&ouml;rter h&ouml;ren. Im Anschluss sollen Sie feststellen, ob diese W&ouml;rter gleich oder unterschiedlich sind;</li><li>Eine <strong>Identifikationsaufgabe,</strong> in der Sie nur ein Wort h&ouml;ren, wobei Ihnen aber zwei Bilder gezeigt werden. Ihre Aufgabe ist es, dasjenige Bild auszuw&auml;hlen, das das geh&ouml;rte Wort darstellt.</li> </ol><p>Wir bitten Sie um Ihre Zustimmung, bevor wir Ihre Daten sammeln und verwenden. Bitte klicken Sie auf den ""Start""-Button, um Ihre Zustimmung zu geben. Anschlie&szlig;end werden wir ein paar Fragen zu Ihren Sprachkenntnissen stellen. Danach k&ouml;nnen Sie das Experiment starten. </p></div>"
"survey-html-form","4","387162","0.0-4.0","duvs","","","","","","56676","{""zustimmung"":""on""}",""
"survey-html-form","5","509575","0.0-5.0","duvs","","","","","","122410","{""native"":""Englisch"",""AOL"":""13"",""LearnType1"":""classeshome"",""LearnType2"":""selflearn"",""LearnType4"":""uni"",""LearnType6"":""immersion"",""which"":""umgezogen"",""AOA"":""21"",""timespent"":""1 Jahr""}",""
"audio-button-response","6","516223","0.0-6.0-0.0","duvs","","","","","","6453","1","audio_projekt/treffen1.wav"
"html-keyboard-response","7","540893","0.0-7.0","duvs","","","","","","24665"," ","<h2>Teil 1: Unterscheidungsaufgabe</h2><div class=""myDiv""><p>In diesem Teil des Experimentes werden Sie im Abstand von 1.5 Sekunden <b>zwei W&ouml;rter</b> h&ouml;ren.</p><ul><li>Ihre Aufgabe ist es, festzustellen, ob diese W&ouml;rter <b>gleich oder unterschiedlich</b> sind. Wenn es einen Unterschied gibt, besteht dieser nur aus einem Vokal. </li> <li>Dr&uuml;cken Sie die <b>Taste Q</b>, wenn die W&ouml;rter gleich sind. Dr&uuml;cken Sie die <b>Taste P</b>, wenn die W&ouml;rter unterschiedlich sind.</li><li>Bitte warten Sie, bis Sie <b>beide Wörter gehört haben</b>, bevor Sie eine Taste drücken. Aber Achtung: Sie haben nur <b>5 Sekunden</b>, um eine Option auszuw&auml;hlen! &Uuml;berlegen Sie daher bitte nicht zu lange.</li></ul><br><p>Dr&uuml;cken Sie eine beliebige Taste, um ein paar Testversuche zu machen.</p></ul></div>"
"audio-keyboard-response","8","544509","0.0-8.0-0.0","duvs","","","","","","null","null","audio_projekt/treffen1500triefen.wav"
"html-keyboard-response","9","546661","0.0-8.0-1.0","duvs","","","","","","2150","p","<div></div>"
"audio-keyboard-response","10","550918","0.0-8.0-0.1","duvs","","","","","","null","null","audio_projekt/treffen1500treffen.wav"
"html-keyboard-response","11","551584","0.0-8.0-1.1","duvs","","","","","","665","q","<div></div>"
"html-keyboard-response","12","556250","0.0-9.0","duvs","","","","","","3864"," ","<p>Gut! Jetzt f&auml;ngt der erste Teil des Experiments an. Dieser Teil dauert ca. 10 Minuten.</p><br><p>Bitte dr&uuml;cken Sie eine beliebige Taste, um fortzufahren.<div style=""height:30px; width:100%""></div>"
"audio-keyboard-response","13","559928","0.0-10.0-0.0","duvs","","","","","","null","null","audio_projekt/segel1500siegel.wav"
"html-keyboard-response","14","564578","0.0-10.0-1.0","duvs","","","","","","4649","q","<div></div>"
"audio-keyboard-response","15","569215","0.0-10.0-0.1","duvs","","","","","","null","null","audio_projekt/spulen1500spielen.wav"
"html-keyboard-response","16","569589","0.0-10.0-1.1","duvs","","","","","","372","p","<div></div>"
"audio-keyboard-response","17","573580","0.0-10.0-0.2","duvs","","","","","","null","null","audio_projekt/buehne1500buehne.wav"
"html-keyboard-response","18","573919","0.0-10.0-1.2","duvs","","","","","","338","q","<div></div>"
"audio-keyboard-response","19","578596","0.0-10.0-0.3","duvs","","","","","","null","null","audio_projekt/spuelen1500spuelen.wav"
"html-keyboard-response","20","578806","0.0-10.0-1.3","duvs","","","","","","209","q","<div></div>"
"audio-keyboard-response","21","582961","0.0-10.0-0.4","duvs","","","","","","null","null","audio_projekt/kiel1500kiel.wav"
"html-keyboard-response","22","583371","0.0-10.0-1.4","duvs","","","","","","409","q","<div></div>"
"audio-keyboard-response","23","587141","0.0-10.0-0.5","duvs","","","","","","null","null","audio_projekt/tuer1500tuer.wav"
"html-keyboard-response","24","587448","0.0-10.0-1.5","duvs","","","","","","305","q","<div></div>"
"audio-keyboard-response","25","591508","0.0-10.0-0.6","duvs","","","","","","null","null","audio_projekt/lieder1500lieder.wav"
"html-keyboard-response","26","592011","0.0-10.0-1.6","duvs","","","","","","502","q","<div></div>"
"audio-keyboard-response","27","596151","0.0-10.0-0.7","duvs","","","","","","null","null","audio_projekt/leder1500lieder.wav"
"html-keyboard-response","28","598996","0.0-10.0-1.7","duvs","","","","","","2845","p","<div></div>"
"audio-keyboard-response","29","602931","0.0-10.0-0.8","duvs","","","","","","null","null","audio_projekt/buehne1500biene.wav"
"html-keyboard-response","30","603208","0.0-10.0-1.8","duvs","","","","","","276","p","<div></div>"
"audio-keyboard-response","31","607574","0.0-10.0-0.9","duvs","","","","","","null","null","audio_projekt/spulen1500spuelen.wav"
"html-keyboard-response","32","609494","0.0-10.0-1.9","duvs","","","","","","1919","q","<div></div>"
"audio-keyboard-response","33","613334","0.0-10.0-0.10","duvs","","","","","","null","null","audio_projekt/tier1500tier.wav"
"html-keyboard-response","34","613709","0.0-10.0-1.10","duvs","","","","","","374","q","<div></div>"
"audio-keyboard-response","35","618070","0.0-10.0-0.11","duvs","","","","","","null","null","audio_projekt/stiel1500stiel.wav"
"html-keyboard-response","36","618385","0.0-10.0-1.11","duvs","","","","","","314","q","<div></div>"
"audio-keyboard-response","37","622342","0.0-10.0-0.12","duvs","","","","","","null","null","audio_projekt/blueten1500bluten.wav"
"html-keyboard-response","38","622952","0.0-10.0-1.12","duvs","","","","","","609","p","<div></div>"
"audio-keyboard-response","39","626800","0.0-10.0-0.13","duvs","","","","","","null","null","audio_projekt/tour1500tier.wav"
"html-keyboard-response","40","627129","0.0-10.0-1.13","duvs","","","","","","328","p","<div></div>"
"audio-keyboard-response","41","631630","0.0-10.0-0.14","duvs","","","","","","null","null","audio_projekt/spuelen1500spielen.wav"
"html-keyboard-response","42","631803","0.0-10.0-1.14","duvs","","","","","","171","p","<div></div>"
"audio-keyboard-response","43","635904","0.0-10.0-0.15","duvs","","","","","","null","null","audio_projekt/lieder1500leder.wav"
"html-keyboard-response","44","636239","0.0-10.0-1.15","duvs","","","","","","334","p","<div></div>"
"audio-keyboard-response","45","640547","0.0-10.0-0.16","duvs","","","","","","null","null","audio_projekt/spuelen1500spulen.wav"
"html-keyboard-response","46","642772","0.0-10.0-1.16","duvs","","","","","","2224","q","<div></div>"
"audio-keyboard-response","47","646677","0.0-10.0-0.17","duvs","","","","","","null","null","audio_projekt/biene1500buehne.wav"
"html-keyboard-response","48","647073","0.0-10.0-1.17","duvs","","","","","","396","p","<div></div>"
"audio-keyboard-response","49","651321","0.0-10.0-0.18","duvs","","","","","","null","null","audio_projekt/stiel1500stiel.wav"
"html-keyboard-response","50","651652","0.0-10.0-1.18","duvs","","","","","","330","q","<div></div>"
"audio-keyboard-response","51","655595","0.0-10.0-0.19","duvs","","","","","","null","null","audio_projekt/leder1500lieder.wav"
"html-keyboard-response","52","655810","0.0-10.0-1.19","duvs","","","","","","214","p","<div></div>"
"audio-keyboard-response","53","659588","0.0-10.0-0.20","duvs","","","","","","null","null","audio_projekt/tuer1500tour.wav"
"html-keyboard-response","54","661961","0.0-10.0-1.20","duvs","","","","","","2373","q","<div></div>"
"audio-keyboard-response","55","665997","0.0-10.0-0.21","duvs","","","","","","null","null","audio_projekt/bluten1500bluten.wav"
"html-keyboard-response","56","666454","0.0-10.0-1.21","duvs","","","","","","457","q","<div></div>"
"audio-keyboard-response","57","670269","0.0-10.0-0.22","duvs","","","","","","null","null","audio_projekt/blueten1500bluten.wav"
"html-keyboard-response","58","671603","0.0-10.0-1.22","duvs","","","","","","1334","p","<div></div>"
"audio-keyboard-response","59","676028","0.0-10.0-0.23","duvs","","","","","","null","null","audio_projekt/stuhl1500stuhl.wav"
"html-keyboard-response","60","676177","0.0-10.0-1.23","duvs","","","","","","149","q","<div></div>"
"audio-keyboard-response","61","679835","0.0-10.0-0.24","duvs","","","","","","null","null","audio_projekt/tier1500tier.wav"
"html-keyboard-response","62","680236","0.0-10.0-1.24","duvs","","","","","","399","q","<div></div>"
"audio-keyboard-response","63","684479","0.0-10.0-0.25","duvs","","","","","","null","null","audio_projekt/spuelen1500spulen.wav"
"html-keyboard-response","64","686463","0.0-10.0-1.25","duvs","","","","","","1983","q","<div></div>"
"audio-keyboard-response","65","690238","0.0-10.0-0.26","duvs","","","","","","null","null","audio_projekt/biene1500buehne.wav"
"html-keyboard-response","66","690982","0.0-10.0-1.26","duvs","","","","","","742","p","<div></div>"
"audio-keyboard-response","67","695346","0.0-10.0-0.27","duvs","","","","","","null","null","audio_projekt/stuhl1500stiel.wav"
"html-keyboard-response","68","695739","0.0-10.0-1.27","duvs","","","","","","391","p","<div></div>"
"audio-keyboard-response","69","699620","0.0-10.0-0.28","duvs","","","","","","null","null","audio_projekt/biene1500biene.wav"
"html-keyboard-response","70","699832","0.0-10.0-1.28","duvs","","","","","","211","q","<div></div>"
"audio-keyboard-response","71","703613","0.0-10.0-0.29","duvs","","","","","","null","null","audio_projekt/buehne1500biene.wav"
"html-keyboard-response","72","703831","0.0-10.0-1.29","duvs","","","","","","217","p","<div></div>"
"audio-keyboard-response","73","708071","0.0-10.0-0.30","duvs","","","","","","null","null","audio_projekt/stuhl1500stiel.wav"
"html-keyboard-response","74","708091","0.0-10.0-1.30","duvs","","","","","","19","p","<div></div>"
"audio-keyboard-response","75","712158","0.0-10.0-0.31","duvs","","","","","","null","null","audio_projekt/kiel1500kuehl.wav"
"html-keyboard-response","76","712320","0.0-10.0-1.31","duvs","","","","","","160","p","<div></div>"
"audio-keyboard-response","77","716338","0.0-10.0-0.32","duvs","","","","","","null","null","audio_projekt/blueten1500blueten.wav"
"html-keyboard-response","78","716611","0.0-10.0-1.32","duvs","","","","","","272","q","<div></div>"
"audio-keyboard-response","79","720703","0.0-10.0-0.33","duvs","","","","","","null","null","audio_projekt/kuehl1500kuehl.wav"
"html-keyboard-response","80","720730","0.0-10.0-1.33","duvs","","","","","","26","q","<div></div>"
"audio-keyboard-response","81","724418","0.0-10.0-0.34","duvs","","","","","","null","null","audio_projekt/tour1500tier.wav"
"html-keyboard-response","82","724478","0.0-10.0-1.34","duvs","","","","","","58","p","<div></div>"
"audio-keyboard-response","83","728504","0.0-10.0-0.35","duvs","","","","","","null","null","audio_projekt/bluten1500blueten.wav"
"html-keyboard-response","84","731929","0.0-10.0-1.35","duvs","","","","","","3423","p","<div></div>"
"audio-keyboard-response","85","736400","0.0-10.0-0.36","duvs","","","","","","null","null","audio_projekt/segel1500segel.wav"
"html-keyboard-response","86","736475","0.0-10.0-1.36","duvs","","","","","","74","q","<div></div>"
"audio-keyboard-response","87","740394","0.0-10.0-0.37","duvs","","","","","","null","null","audio_projekt/kiel1500kuehl.wav"
"html-keyboard-response","88","740453","0.0-10.0-1.37","duvs","","","","","","58","p","<div></div>"
"audio-keyboard-response","89","744666","0.0-10.0-0.38","duvs","","","","","","null","null","audio_projekt/spulen1500spuelen.wav"
"html-keyboard-response","90","745777","0.0-10.0-1.38","duvs","","","","","","1110","q","<div></div>"
"audio-keyboard-response","91","750146","0.0-10.0-0.39","duvs","","","","","","null","null","audio_projekt/stiel1500stuhl.wav"
"html-keyboard-response","92","751775","0.0-10.0-1.39","duvs","","","","","","1627","p","<div></div>"
"audio-keyboard-response","93","756462","0.0-10.0-0.40","duvs","","","","","","null","null","audio_projekt/spielen1500spulen.wav"
"html-keyboard-response","94","756598","0.0-10.0-1.40","duvs","","","","","","135","p","<div></div>"
"audio-keyboard-response","95","760271","0.0-10.0-0.41","duvs","","","","","","null","null","audio_projekt/tuer1500tuer.wav"
"html-keyboard-response","96","760475","0.0-10.0-1.41","duvs","","","","","","203","q","<div></div>"
"audio-keyboard-response","97","765007","0.0-10.0-0.42","duvs","","","","","","null","null","audio_projekt/siegel1500segel.wav"
"html-keyboard-response","98","765540","0.0-10.0-1.42","duvs","","","","","","531","p","<div></div>"
"audio-keyboard-response","99","769838","0.0-10.0-0.43","duvs","","","","","","null","null","audio_projekt/segel1500siegel.wav"
"html-keyboard-response","100","769878","0.0-10.0-1.43","duvs","","","","","","39","p","<div></div>"
"audio-keyboard-response","101","773738","0.0-10.0-0.44","duvs","","","","","","null","null","audio_projekt/bluten1500bluten.wav"
"html-keyboard-response","102","773978","0.0-10.0-1.44","duvs","","","","","","238","q","<div></div>"
"audio-keyboard-response","103","778104","0.0-10.0-0.45","duvs","","","","","","null","null","audio_projekt/leder1500leder.wav"
"html-keyboard-response","104","778400","0.0-10.0-1.45","duvs","","","","","","295","q","<div></div>"
"audio-keyboard-response","105","782747","0.0-10.0-0.46","duvs","","","","","","null","null","audio_projekt/spuelen1500spuelen.wav"
"html-keyboard-response","106","784194","0.0-10.0-1.46","duvs","","","","","","1445","q","<div></div>"
"audio-keyboard-response","107","788413","0.0-10.0-0.47","duvs","","","","","","null","null","audio_projekt/stuhl1500stuhl.wav"
"html-keyboard-response","108","788509","0.0-10.0-1.47","duvs","","","","","","95","q","<div></div>"
"audio-keyboard-response","109","792314","0.0-10.0-0.48","duvs","","","","","","null","null","audio_projekt/tour1500tour.wav"
"html-keyboard-response","110","792432","0.0-10.0-1.48","duvs","","","","","","117","q","<div></div>"
"audio-keyboard-response","111","796959","0.0-10.0-0.49","duvs","","","","","","null","null","audio_projekt/spielen1500spielen.wav"
"html-keyboard-response","112","797449","0.0-10.0-1.49","duvs","","","","","","489","q","<div></div>"
"audio-keyboard-response","113","801509","0.0-10.0-0.50","duvs","","","","","","null","null","audio_projekt/kuehl1500kiel.wav"
"html-keyboard-response","114","802388","0.0-10.0-1.50","duvs","","","","","","877","p","<div></div>"
"audio-keyboard-response","115","806803","0.0-10.0-0.51","duvs","","","","","","null","null","audio_projekt/spuelen1500spielen.wav"
"html-keyboard-response","116","806827","0.0-10.0-1.51","duvs","","","","","","23","p","<div></div>"
"audio-keyboard-response","117","810704","0.0-10.0-0.52","duvs","","","","","","null","null","audio_projekt/bluten1500blueten.wav"
"html-keyboard-response","118","810957","0.0-10.0-1.52","duvs","","","","","","253","p","<div></div>"
"audio-keyboard-response","119","815441","0.0-10.0-0.53","duvs","","","","","","null","null","audio_projekt/siegel1500siegel.wav"
"html-keyboard-response","120","815797","0.0-10.0-1.53","duvs","","","","","","354","q","<div></div>"
"audio-keyboard-response","121","819528","0.0-10.0-0.54","duvs","","","","","","null","null","audio_projekt/tour1500tuer.wav"
"html-keyboard-response","122","820989","0.0-10.0-1.54","duvs","","","","","","1460","q","<div></div>"
"audio-keyboard-response","123","824915","0.0-10.0-0.55","duvs","","","","","","null","null","audio_projekt/lieder1500leder.wav"
"html-keyboard-response","124","825468","0.0-10.0-1.55","duvs","","","","","","552","p","<div></div>"
"audio-keyboard-response","125","829373","0.0-10.0-0.56","duvs","","","","","","null","null","audio_projekt/kuehl1500kiel.wav"
"html-keyboard-response","126","829473","0.0-10.0-1.56","duvs","","","","","","99","p","<div></div>"
"audio-keyboard-response","127","833274","0.0-10.0-0.57","duvs","","","","","","null","null","audio_projekt/tier1500tour.wav"
"html-keyboard-response","128","834203","0.0-10.0-1.57","duvs","","","","","","928","p","<div></div>"
"audio-keyboard-response","129","838104","0.0-10.0-0.58","duvs","","","","","","null","null","audio_projekt/leder1500leder.wav"
"html-keyboard-response","130","838283","0.0-10.0-1.58","duvs","","","","","","178","q","<div></div>"
"audio-keyboard-response","131","842191","0.0-10.0-0.59","duvs","","","","","","null","null","audio_projekt/kiel1500kiel.wav"
"html-keyboard-response","132","842253","0.0-10.0-1.59","duvs","","","","","","61","q","<div></div>"
"audio-keyboard-response","133","846556","0.0-10.0-0.60","duvs","","","","","","null","null","audio_projekt/segel1500segel.wav"
"html-keyboard-response","134","846558","0.0-10.0-1.60","duvs","","","","","","1","q","<div></div>"
"audio-keyboard-response","135","850179","0.0-10.0-0.61","duvs","","","","","","null","null","audio_projekt/tour1500tuer.wav"
"html-keyboard-response","136","851195","0.0-10.0-1.61","duvs","","","","","","1015","q","<div></div>"
"audio-keyboard-response","137","855473","0.0-10.0-0.62","duvs","","","","","","null","null","audio_projekt/siegel1500segel.wav"
"html-keyboard-response","138","855699","0.0-10.0-1.62","duvs","","","","","","225","p","<div></div>"
"audio-keyboard-response","139","860025","0.0-10.0-0.63","duvs","","","","","","null","null","audio_projekt/siegel1500siegel.wav"
"html-keyboard-response","140","860503","0.0-10.0-1.63","duvs","","","","","","477","q","<div></div>"
"audio-keyboard-response","141","864669","0.0-10.0-0.64","duvs","","","","","","null","null","audio_projekt/stiel1500stuhl.wav"
"html-keyboard-response","142","865146","0.0-10.0-1.64","duvs","","","","","","476","p","<div></div>"
"audio-keyboard-response","143","869684","0.0-10.0-0.65","duvs","","","","","","null","null","audio_projekt/spielen1500spuelen.wav"
"html-keyboard-response","144","870116","0.0-10.0-1.65","duvs","","","","","","431","p","<div></div>"
"audio-keyboard-response","145","873863","0.0-10.0-0.66","duvs","","","","","","null","null","audio_projekt/biene1500biene.wav"
"html-keyboard-response","146","874179","0.0-10.0-1.66","duvs","","","","","","315","q","<div></div>"
"audio-keyboard-response","147","878693","0.0-10.0-0.67","duvs","","","","","","null","null","audio_projekt/spulen1500spielen.wav"
"html-keyboard-response","148","878900","0.0-10.0-1.67","duvs","","","","","","206","p","<div></div>"
"audio-keyboard-response","149","882594","0.0-10.0-0.68","duvs","","","","","","null","null","audio_projekt/tier1500tour.wav"
"html-keyboard-response","150","883307","0.0-10.0-1.68","duvs","","","","","","712","p","<div></div>"
"audio-keyboard-response","151","887238","0.0-10.0-0.69","duvs","","","","","","null","null","audio_projekt/lieder1500lieder.wav"
"html-keyboard-response","152","887620","0.0-10.0-1.69","duvs","","","","","","381","q","<div></div>"
"audio-keyboard-response","153","892254","0.0-10.0-0.70","duvs","","","","","","null","null","audio_projekt/spulen1500spulen.wav"
"html-keyboard-response","154","892721","0.0-10.0-1.70","duvs","","","","","","466","q","<div></div>"
"audio-keyboard-response","155","896340","0.0-10.0-0.71","duvs","","","","","","null","null","audio_projekt/tour1500tour.wav"
"html-keyboard-response","156","896699","0.0-10.0-1.71","duvs","","","","","","358","q","<div></div>"
"audio-keyboard-response","157","901077","0.0-10.0-0.72","duvs","","","","","","null","null","audio_projekt/spielen1500spielen.wav"
"html-keyboard-response","158","901284","0.0-10.0-1.72","duvs","","","","","","205","q","<div></div>"
"audio-keyboard-response","159","905071","0.0-10.0-0.73","duvs","","","","","","null","null","audio_projekt/blueten1500blueten.wav"
"html-keyboard-response","160","905316","0.0-10.0-1.73","duvs","","","","","","244","q","<div></div>"
"audio-keyboard-response","161","909064","0.0-10.0-0.74","duvs","","","","","","null","null","audio_projekt/buehne1500buehne.wav"
"html-keyboard-response","162","909386","0.0-10.0-1.74","duvs","","","","","","320","q","<div></div>"
"audio-keyboard-response","163","913058","0.0-10.0-0.75","duvs","","","","","","null","null","audio_projekt/tuer1500tour.wav"
"html-keyboard-response","164","914546","0.0-10.0-1.75","duvs","","","","","","1486","q","<div></div>"
"audio-keyboard-response","165","918910","0.0-10.0-0.76","duvs","","","","","","null","null","audio_projekt/spielen1500spuelen.wav"
"html-keyboard-response","166","919660","0.0-10.0-1.76","duvs","","","","","","748","p","<div></div>"
"audio-keyboard-response","167","924111","0.0-10.0-0.77","duvs","","","","","","null","null","audio_projekt/spulen1500spulen.wav"
"html-keyboard-response","168","924360","0.0-10.0-1.77","duvs","","","","","","248","q","<div></div>"
"audio-keyboard-response","169","928291","0.0-10.0-0.78","duvs","","","","","","null","null","audio_projekt/kuehl1500kuehl.wav"
"html-keyboard-response","170","928505","0.0-10.0-1.78","duvs","","","","","","213","q","<div></div>"
"audio-keyboard-response","171","933027","0.0-10.0-0.79","duvs","","","","","","null","null","audio_projekt/spielen1500spulen.wav"
"html-keyboard-response","172","933432","0.0-10.0-1.79","duvs","","","","","","403","p","<div></div>"
"html-keyboard-response","173","1076629","0.0-11.0","duvs","","","","","","142394"," ","<h2>Pause</h2><div class=""myDiv""><p>Gut gemacht! Jetzt k&ouml;nnen Sie eine kleine Pause machen.</p></div><div><img src=""pics/coffee.png"" title=""Machen Sie eine Pause..."" width=""150"" height=""150"" class=""center""></div><div style=""height:20px; width:100%""></div><p>Wenn Sie bereit sind, dr&uuml;cken Sie eine beliebige Taste, um fortzufahren.</p>"
"html-keyboard-response","174","1099389","0.0-12.0","duvs","","","","","","22757"," ","<h2>Teil 2: Identifikationsaufgabe: Vorbereitung 1</h2><div class=""myDiv""><p>In diesem Teil des Experimentes werden Sie nur ein Wort h&ouml;ren. </p><p>Anschlie&szlig;end werden zwei Bilder gezeigt. W&auml;hlen Sie das Bild aus, das das Wort darstellt.</p><p>Bevor die Aufgabe beginnt, werden die Bilder mit den entsprechenden W&ouml;rtern angezeigt. Sie werden jedes Bild zweimal sehen.</p><p>Dr&uuml;cken Sie bitte eine beliebige Taste, um die Bilder zu sehen.</p>"
"audio-button-response","175","1104015","0.0-13.0-0.0-0.0","duvs","","","","","","4441","0","audio_projekt/blueten.wav"
"audio-button-response","176","1107801","0.0-13.0-0.0-0.1","duvs","","","","","","3655","0","audio_projekt/beten1.wav"
"audio-button-response","177","1110308","0.0-13.0-0.0-0.2","duvs","","","","","","2443","0","audio_projekt/tuer.wav"
"audio-button-response","178","1113395","0.0-13.0-0.0-0.3","duvs","","","","","","2947","0","audio_projekt/bluten.wav"
"audio-button-response","179","1116020","0.0-13.0-0.0-0.4","duvs","","","","","","2538","0","audio_projekt/buehne.wav"
"audio-button-response","180","1118620","0.0-13.0-0.0-0.5","duvs","","","","","","2508","0","audio_projekt/leder.wav"
"audio-button-response","181","1121348","0.0-13.0-0.0-0.6","duvs","","","","","","2634","0","audio_projekt/bieten1.wav"
"audio-button-response","182","1123643","0.0-13.0-0.0-0.7","duvs","","","","","","2159","0","audio_projekt/spulen.wav"
"audio-button-response","183","1125414","0.0-13.0-0.0-0.8","duvs","","","","","","1687","0","audio_projekt/biene.wav"
"audio-button-response","184","1127118","0.0-13.0-0.0-0.9","duvs","","","","","","1612","0","audio_projekt/segel.wav"
"audio-button-response","185","1128683","0.0-13.0-0.0-0.10","duvs","","","","","","1477","0","audio_projekt/stuhl.wav"
"audio-button-response","186","1129831","0.0-13.0-0.0-0.11","duvs","","","","","","1082","0","audio_projekt/tier.wav"
"audio-button-response","187","1131042","0.0-13.0-0.0-0.12","duvs","","","","","","1123","0","audio_projekt/treffen2.wav"
"audio-button-response","188","1132636","0.0-13.0-0.0-0.13","duvs","","","","","","1456","0","audio_projekt/stiel.wav"
"audio-button-response","189","1134272","0.0-13.0-0.0-0.14","duvs","","","","","","1546","0","audio_projekt/siegel.wav"
"audio-button-response","190","1136088","0.0-13.0-0.0-0.15","duvs","","","","","","1748","0","audio_projekt/tour.wav"
"audio-button-response","191","1139779","0.0-13.0-0.0-0.16","duvs","","","","","","3601","0","audio_projekt/lieder.wav"
"audio-button-response","192","1141482","0.0-13.0-0.0-0.17","duvs","","","","","","1614","0","audio_projekt/spuelen2.wav"
"audio-button-response","193","1142957","0.0-13.0-0.0-0.18","duvs","","","","","","1333","0","audio_projekt/kiel.wav"
"audio-button-response","194","1144177","0.0-13.0-0.0-0.19","duvs","","","","","","1132","0","audio_projekt/kuehl.wav"
"audio-button-response","195","1145748","0.0-13.0-0.0-0.20","duvs","","","","","","1478","0","audio_projekt/spielen2.wav"
"audio-button-response","196","1147405","0.0-13.0-0.0-0.21","duvs","","","","","","1561","0","audio_projekt/triefen1.wav"
"audio-button-response","197","1150705","0.0-13.0-0.1-0.22","duvs","","","","","","3298","0","audio_projekt/blueten.wav"
"audio-button-response","198","1152817","0.0-13.0-0.1-0.23","duvs","","","","","","2109","0","audio_projekt/beten1.wav"
"audio-button-response","199","1153925","0.0-13.0-0.1-0.24","duvs","","","","","","1106","0","audio_projekt/tuer.wav"
"audio-button-response","200","1154587","0.0-13.0-0.1-0.25","duvs","","","","","","660","0","audio_projekt/bluten.wav"
"audio-button-response","201","1155219","0.0-13.0-0.1-0.26","duvs","","","","","","628","0","audio_projekt/buehne.wav"
"audio-button-response","202","1155675","0.0-13.0-0.1-0.27","duvs","","","","","","454","0","audio_projekt/leder.wav"
"audio-button-response","203","1156079","0.0-13.0-0.1-0.28","duvs","","","","","","401","0","audio_projekt/bieten1.wav"
"audio-button-response","204","1156608","0.0-13.0-0.1-0.29","duvs","","","","","","526","0","audio_projekt/spulen.wav"
"audio-button-response","205","1157006","0.0-13.0-0.1-0.30","duvs","","","","","","397","0","audio_projekt/biene.wav"
"audio-button-response","206","1157412","0.0-13.0-0.1-0.31","duvs","","","","","","403","0","audio_projekt/segel.wav"
"audio-button-response","207","1157872","0.0-13.0-0.1-0.32","duvs","","","","","","458","0","audio_projekt/stuhl.wav"
"audio-button-response","208","1158309","0.0-13.0-0.1-0.33","duvs","","","","","","434","0","audio_projekt/tier.wav"
"audio-button-response","209","1158732","0.0-13.0-0.1-0.34","duvs","","","","","","421","0","audio_projekt/treffen2.wav"
"audio-button-response","210","1159081","0.0-13.0-0.1-0.35","duvs","","","","","","347","0","audio_projekt/stiel.wav"
"audio-button-response","211","1159457","0.0-13.0-0.1-0.36","duvs","","","","","","372","0","audio_projekt/siegel.wav"
"audio-button-response","212","1159823","0.0-13.0-0.1-0.37","duvs","","","","","","363","0","audio_projekt/tour.wav"
"audio-button-response","213","1160202","0.0-13.0-0.1-0.38","duvs","","","","","","376","0","audio_projekt/lieder.wav"
"audio-button-response","214","1160567","0.0-13.0-0.1-0.39","duvs","","","","","","362","0","audio_projekt/spuelen2.wav"
"audio-button-response","215","1160937","0.0-13.0-0.1-0.40","duvs","","","","","","368","0","audio_projekt/kiel.wav"
"audio-button-response","216","1161423","0.0-13.0-0.1-0.41","duvs","","","","","","484","0","audio_projekt/kuehl.wav"
"audio-button-response","217","1162000","0.0-13.0-0.1-0.42","duvs","","","","","","576","0","audio_projekt/spielen2.wav"
"audio-button-response","218","1162605","0.0-13.0-0.1-0.43","duvs","","","","","","602","0","audio_projekt/triefen1.wav"
"html-keyboard-response","219","1171623","0.0-14.0","duvs","","","","","","9017"," ","<h2>Teil 2: Identifikationsaufgabe: Vorbereitung 2</h2><div class=""myDiv""><p>Jetzt können Sie einen kurzen Probedurchlauf f&uuml;r diesen Teil des Experiments machen.</p><p>W&auml;hlen Sie das Bild aus, das das Wort darstellt. <ul><li>Dr&uuml;cken Sie die <b>Taste Q</b>, um das <b>linke</b> Bild auszuw&auml;hlen. Dr&uuml;cken Sie die <b>Taste P</b>, um das <b>rechte</b> Bild auszuw&auml;hlen.</li> <li>Sie haben 5 Sekunden Zeit, um sich f&uuml;r eines der Bilder zu entscheiden. </li><li>Bitte warten Sie, bis Sie <b>das ganze Wort gehört haben</b>, bevor Sie eine Taste drücken.</li></ul></p><p>Dr&uuml;cken Sie eine beliebige Taste, um den Probedurchlauf anzufangen.</p>"
"audio-keyboard-response","220","1172692","0.0-15.0-0.0","duvs","","","","","","null","null","audio_projekt/treffen2.wav"
"image-keyboard-response","221","1174816","0.0-15.0-1.0","duvs","","","","","","2121","p","pics/scaled/triefen_treffen.png"
"audio-keyboard-response","222","1176500","0.0-15.0-0.1","duvs","","","","","","null","null","audio_projekt/beten1.wav"
"image-keyboard-response","223","1180598","0.0-15.0-1.1","duvs","","","","","","4096","p","pics/scaled/bieten_beten.jpg"
"html-keyboard-response","224","1184706","0.0-16.0","duvs","","","","","","3307"," ","<h2>Teil 2: Identifikationsaufgabe</h2><p>Jetzt sind Sie darauf vorbereitet, die Identifikationsaufgabe auszuführen.</p><p>Sind Sie bereit? Dann dr&uuml;cken Sie eine beliebige Taste, um anzufangen.</p>"
"audio-keyboard-response","225","1185788","0.0-17.0-0.0","duvs","","","","","","null","null","audio_projekt/stuhl.wav"
"image-keyboard-response","226","1187060","0.0-17.0-1.0","duvs","","","","","","1270","p","pics/scaled/stiel2_stuhl.jpg"
"audio-keyboard-response","227","1189132","0.0-17.0-0.1","duvs","","","","","","null","null","audio_projekt/spulen.wav"
"image-keyboard-response","228","1189991","0.0-17.0-1.1","duvs","","","","","","858","q","pics/scaled/spielen_spulen.jpg"
"audio-keyboard-response","229","1191732","0.0-17.0-0.2","duvs","","","","","","null","null","audio_projekt/buehne.wav"
"image-keyboard-response","230","1192010","0.0-17.0-1.2","duvs","","","","","","276","p","pics/scaled/biene_buehne.png"
"audio-keyboard-response","231","1194055","0.0-17.0-0.3","duvs","","","","","","null","null","audio_projekt/spielen2.wav"
"image-keyboard-response","232","1194152","0.0-17.0-1.3","duvs","","","","","","95","p","pics/scaled/spielen_spulen.jpg"
"audio-keyboard-response","233","1195912","0.0-17.0-0.4","duvs","","","","","","null","null","audio_projekt/kuehl.wav"
"image-keyboard-response","234","1197469","0.0-17.0-1.4","duvs","","","","","","1556","p","pics/scaled/kiel_kuehl.jpg"
"audio-keyboard-response","235","1199442","0.0-17.0-0.5","duvs","","","","","","null","null","audio_projekt/segel.wav"
"image-keyboard-response","236","1201225","0.0-17.0-1.5","duvs","","","","","","1781","q","pics/scaled/siegel_segel.jpg"
"audio-keyboard-response","237","1202785","0.0-17.0-0.6","duvs","","","","","","null","null","audio_projekt/tour.wav"
"image-keyboard-response","238","1203240","0.0-17.0-1.6","duvs","","","","","","453","p","pics/scaled/tier_tour.jpg"
"audio-keyboard-response","239","1205107","0.0-17.0-0.7","duvs","","","","","","null","null","audio_projekt/stiel.wav"
"image-keyboard-response","240","1206153","0.0-17.0-1.7","duvs","","","","","","1044","q","pics/scaled/stiel2_stuhl.jpg"
"audio-keyboard-response","241","1208265","0.0-17.0-0.8","duvs","","","","","","null","null","audio_projekt/spuelen2.wav"
"image-keyboard-response","242","1208521","0.0-17.0-1.8","duvs","","","","","","254","p","pics/scaled/spielen_spuelen.jpg"
"audio-keyboard-response","243","1210215","0.0-17.0-0.9","duvs","","","","","","null","null","audio_projekt/biene.wav"
"image-keyboard-response","244","1210557","0.0-17.0-1.9","duvs","","","","","","340","q","pics/scaled/biene_buehne.png"
"audio-keyboard-response","245","1212537","0.0-17.0-0.10","duvs","","","","","","null","null","audio_projekt/segel.wav"
"image-keyboard-response","246","1213203","0.0-17.0-1.10","duvs","","","","","","664","q","pics/scaled/siegel_segel.jpg"
"audio-keyboard-response","247","1215231","0.0-17.0-0.11","duvs","","","","","","null","null","audio_projekt/spuelen2.wav"
"image-keyboard-response","248","1215535","0.0-17.0-1.11","duvs","","","","","","302","p","pics/scaled/spielen_spuelen.jpg"
"audio-keyboard-response","249","1217088","0.0-17.0-0.12","duvs","","","","","","null","null","audio_projekt/tour.wav"
"image-keyboard-response","250","1218225","0.0-17.0-1.12","duvs","","","","","","1135","p","pics/scaled/tuer_tour.jpg"
"audio-keyboard-response","251","1220340","0.0-17.0-0.13","duvs","","","","","","null","null","audio_projekt/spielen.wav"
"image-keyboard-response","252","1220349","0.0-17.0-1.13","duvs","","","","","","8","q","pics/scaled/spielen_spuelen.jpg"
"audio-keyboard-response","253","1222104","0.0-17.0-0.14","duvs","","","","","","null","null","audio_projekt/blueten.wav"
"image-keyboard-response","254","1226133","0.0-17.0-1.14","duvs","","","","","","4028","p","pics/scaled/bluten_blueten.jpg"
"audio-keyboard-response","255","1227862","0.0-17.0-0.15","duvs","","","","","","null","null","audio_projekt/biene.wav"
"image-keyboard-response","256","1227940","0.0-17.0-1.15","duvs","","","","","","76","q","pics/scaled/biene_buehne.png"
"audio-keyboard-response","257","1229628","0.0-17.0-0.16","duvs","","","","","","null","null","audio_projekt/tuer.wav"
"image-keyboard-response","258","1231857","0.0-17.0-1.16","duvs","","","","","","2228","q","pics/scaled/tuer_tour.jpg"
"audio-keyboard-response","259","1233621","0.0-17.0-0.17","duvs","","","","","","null","null","audio_projekt/lieder.wav"
"image-keyboard-response","260","1233944","0.0-17.0-1.17","duvs","","","","","","321","p","pics/scaled/lieder_leder.jpg"
"audio-keyboard-response","261","1236035","0.0-17.0-0.18","duvs","","","","","","null","null","audio_projekt/spulen.wav"
"image-keyboard-response","262","1236234","0.0-17.0-1.18","duvs","","","","","","197","p","pics/scaled/spulen_spuelen.jpg"
"audio-keyboard-response","263","1238266","0.0-17.0-0.19","duvs","","","","","","null","null","audio_projekt/spuelen2.wav"
"image-keyboard-response","264","1241439","0.0-17.0-1.19","duvs","","","","","","3172","p","pics/scaled/spulen_spuelen.jpg"
"audio-keyboard-response","265","1243188","0.0-17.0-0.20","duvs","","","","","","null","null","audio_projekt/blueten.wav"
"image-keyboard-response","266","1243568","0.0-17.0-1.20","duvs","","","","","","378","q","pics/scaled/bluten_blueten.jpg"
"audio-keyboard-response","267","1245232","0.0-17.0-0.21","duvs","","","","","","null","null","audio_projekt/buehne.wav"
"image-keyboard-response","268","1245319","0.0-17.0-1.21","duvs","","","","","","85","p","pics/scaled/biene_buehne.png"
"audio-keyboard-response","269","1247368","0.0-17.0-0.22","duvs","","","","","","null","null","audio_projekt/spulen.wav"
"image-keyboard-response","270","1247991","0.0-17.0-1.22","duvs","","","","","","622","q","pics/scaled/spielen_spulen.jpg"
"audio-keyboard-response","271","1249689","0.0-17.0-0.23","duvs","","","","","","null","null","audio_projekt/biene.wav"
"image-keyboard-response","272","1250074","0.0-17.0-1.23","duvs","","","","","","382","q","pics/scaled/biene_buehne.png"
"audio-keyboard-response","273","1251640","0.0-17.0-0.24","duvs","","","","","","null","null","audio_projekt/tier.wav"
"image-keyboard-response","274","1252148","0.0-17.0-1.24","duvs","","","","","","507","q","pics/scaled/tier_tour.jpg"
"audio-keyboard-response","275","1253869","0.0-17.0-0.25","duvs","","","","","","null","null","audio_projekt/tuer.wav"
"image-keyboard-response","276","1254021","0.0-17.0-1.25","duvs","","","","","","150","p","pics/scaled/tuer_tour.jpg"
"audio-keyboard-response","277","1255726","0.0-17.0-0.26","duvs","","","","","","null","null","audio_projekt/blueten.wav"
"image-keyboard-response","278","1256956","0.0-17.0-1.26","duvs","","","","","","1228","q","pics/scaled/bluten_blueten.jpg"
"audio-keyboard-response","279","1258977","0.0-17.0-0.27","duvs","","","","","","null","null","audio_projekt/stiel.wav"
"image-keyboard-response","280","1259311","0.0-17.0-1.27","duvs","","","","","","331","q","pics/scaled/stiel2_stuhl.jpg"
"audio-keyboard-response","281","1261393","0.0-17.0-0.28","duvs","","","","","","null","null","audio_projekt/spuelen2.wav"
"image-keyboard-response","282","1263335","0.0-17.0-1.28","duvs","","","","","","1938","q","pics/scaled/spulen_spuelen.jpg"
"audio-keyboard-response","283","1265107","0.0-17.0-0.29","duvs","","","","","","null","null","audio_projekt/leder.wav"
"image-keyboard-response","284","1265155","0.0-17.0-1.29","duvs","","","","","","47","q","pics/scaled/lieder_leder.jpg"
"audio-keyboard-response","285","1267244","0.0-17.0-0.30","duvs","","","","","","null","null","audio_projekt/spielen2.wav"
"image-keyboard-response","286","1267378","0.0-17.0-1.30","duvs","","","","","","133","p","pics/scaled/spielen_spulen.jpg"
"audio-keyboard-response","287","1269288","0.0-17.0-0.31","duvs","","","","","","null","null","audio_projekt/stiel.wav"
"image-keyboard-response","288","1270282","0.0-17.0-1.31","duvs","","","","","","992","q","pics/scaled/stiel2_stuhl.jpg"
"audio-keyboard-response","289","1271980","0.0-17.0-0.32","duvs","","","","","","null","null","audio_projekt/bluten.wav"
"image-keyboard-response","290","1272890","0.0-17.0-1.32","duvs","","","","","","908","p","pics/scaled/bluten_blueten.jpg"
"audio-keyboard-response","291","1274674","0.0-17.0-0.33","duvs","","","","","","null","null","audio_projekt/kuehl.wav"
"image-keyboard-response","292","1275658","0.0-17.0-1.33","duvs","","","","","","982","p","pics/scaled/kiel_kuehl.jpg"
"audio-keyboard-response","293","1277739","0.0-17.0-0.34","duvs","","","","","","null","null","audio_projekt/spielen2.wav"
"image-keyboard-response","294","1278889","0.0-17.0-1.34","duvs","","","","","","1148","p","pics/scaled/spielen_spulen.jpg"
"audio-keyboard-response","295","1280989","0.0-17.0-0.35","duvs","","","","","","null","null","audio_projekt/spielen.wav"
"image-keyboard-response","296","1281218","0.0-17.0-1.35","duvs","","","","","","226","q","pics/scaled/spielen_spuelen.jpg"
"audio-keyboard-response","297","1282847","0.0-17.0-0.36","duvs","","","","","","null","null","audio_projekt/tier.wav"
"image-keyboard-response","298","1283100","0.0-17.0-1.36","duvs","","","","","","251","q","pics/scaled/tier_tour.jpg"
"audio-keyboard-response","299","1285076","0.0-17.0-0.37","duvs","","","","","","null","null","audio_projekt/siegel.wav"
"image-keyboard-response","300","1285893","0.0-17.0-1.37","duvs","","","","","","816","p","pics/scaled/siegel_segel.jpg"
"audio-keyboard-response","301","1287956","0.0-17.0-0.38","duvs","","","","","","null","null","audio_projekt/spulen.wav"
"image-keyboard-response","302","1288090","0.0-17.0-1.38","duvs","","","","","","132","q","pics/scaled/spielen_spulen.jpg"
"audio-keyboard-response","303","1290185","0.0-17.0-0.39","duvs","","","","","","null","null","audio_projekt/spuelen2.wav"
"image-keyboard-response","304","1290692","0.0-17.0-1.39","duvs","","","","","","506","p","pics/scaled/spulen_spuelen.jpg"
"audio-keyboard-response","305","1292322","0.0-17.0-0.40","duvs","","","","","","null","null","audio_projekt/tour.wav"
"image-keyboard-response","306","1293038","0.0-17.0-1.40","duvs","","","","","","715","p","pics/scaled/tuer_tour.jpg"
"audio-keyboard-response","307","1294829","0.0-17.0-0.41","duvs","","","","","","null","null","audio_projekt/bluten.wav"
"image-keyboard-response","308","1295255","0.0-17.0-1.41","duvs","","","","","","423","p","pics/scaled/bluten_blueten.jpg"
"audio-keyboard-response","309","1297058","0.0-17.0-0.42","duvs","","","","","","null","null","audio_projekt/leder.wav"
"image-keyboard-response","310","1297262","0.0-17.0-1.42","duvs","","","","","","202","q","pics/scaled/lieder_leder.jpg"
"audio-keyboard-response","311","1298916","0.0-17.0-0.43","duvs","","","","","","null","null","audio_projekt/tour.wav"
"image-keyboard-response","312","1299102","0.0-17.0-1.43","duvs","","","","","","185","p","pics/scaled/tier_tour.jpg"
"audio-keyboard-response","313","1301052","0.0-17.0-0.44","duvs","","","","","","null","null","audio_projekt/siegel.wav"
"image-keyboard-response","314","1302078","0.0-17.0-1.44","duvs","","","","","","1024","p","pics/scaled/siegel_segel.jpg"
"audio-keyboard-response","315","1303931","0.0-17.0-0.45","duvs","","","","","","null","null","audio_projekt/stuhl.wav"
"image-keyboard-response","316","1304129","0.0-17.0-1.45","duvs","","","","","","196","p","pics/scaled/stiel2_stuhl.jpg"
"audio-keyboard-response","317","1305789","0.0-17.0-0.46","duvs","","","","","","null","null","audio_projekt/tour.wav"
"image-keyboard-response","318","1306928","0.0-17.0-1.46","duvs","","","","","","1136","p","pics/scaled/tier_tour.jpg"
"audio-keyboard-response","319","1308761","0.0-17.0-0.47","duvs","","","","","","null","null","audio_projekt/lieder.wav"
"image-keyboard-response","320","1309115","0.0-17.0-1.47","duvs","","","","","","352","p","pics/scaled/lieder_leder.jpg"
"audio-keyboard-response","321","1311175","0.0-17.0-0.48","duvs","","","","","","null","null","audio_projekt/spulen.wav"
"image-keyboard-response","322","1311991","0.0-17.0-1.48","duvs","","","","","","814","p","pics/scaled/spulen_spuelen.jpg"
"audio-keyboard-response","323","1313869","0.0-17.0-0.49","duvs","","","","","","null","null","audio_projekt/stuhl.wav"
"image-keyboard-response","324","1313933","0.0-17.0-1.49","duvs","","","","","","62","p","pics/scaled/stiel2_stuhl.jpg"
"audio-keyboard-response","325","1315727","0.0-17.0-0.50","duvs","","","","","","null","null","audio_projekt/kiel.wav"
"image-keyboard-response","326","1315858","0.0-17.0-1.50","duvs","","","","","","129","q","pics/scaled/kiel_kuehl.jpg"
"audio-keyboard-response","327","1317678","0.0-17.0-0.51","duvs","","","","","","null","null","audio_projekt/kiel.wav"
"image-keyboard-response","328","1317804","0.0-17.0-1.51","duvs","","","","","","125","q","pics/scaled/kiel_kuehl.jpg"
"audio-keyboard-response","329","1319628","0.0-17.0-0.52","duvs","","","","","","null","null","audio_projekt/bluten.wav"
"image-keyboard-response","330","1319792","0.0-17.0-1.52","duvs","","","","","","163","p","pics/scaled/bluten_blueten.jpg"
"audio-keyboard-response","331","1321578","0.0-17.0-0.53","duvs","","","","","","null","null","audio_projekt/leder.wav"
"image-keyboard-response","332","1321830","0.0-17.0-1.53","duvs","","","","","","250","q","pics/scaled/lieder_leder.jpg"
"audio-keyboard-response","333","1323900","0.0-17.0-0.54","duvs","","","","","","null","null","audio_projekt/spielen.wav"
"image-keyboard-response","334","1324109","0.0-17.0-1.54","duvs","","","","","","207","q","pics/scaled/spielen_spuelen.jpg"
"audio-keyboard-response","335","1326129","0.0-17.0-0.55","duvs","","","","","","null","null","audio_projekt/siegel.wav"
"image-keyboard-response","336","1326623","0.0-17.0-1.55","duvs","","","","","","491","p","pics/scaled/siegel_segel.jpg"
"audio-keyboard-response","337","1328359","0.0-17.0-0.56","duvs","","","","","","null","null","audio_projekt/tour.wav"
"image-keyboard-response","338","1330204","0.0-17.0-1.56","duvs","","","","","","1843","q","pics/scaled/tuer_tour.jpg"
"audio-keyboard-response","339","1332166","0.0-17.0-0.57","duvs","","","","","","null","null","audio_projekt/segel.wav"
"image-keyboard-response","340","1332362","0.0-17.0-1.57","duvs","","","","","","187","q","pics/scaled/siegel_segel.jpg"
"audio-keyboard-response","341","1334118","0.0-17.0-0.58","duvs","","","","","","null","null","audio_projekt/kuehl.wav"
"image-keyboard-response","342","1334515","0.0-17.0-1.58","duvs","","","","","","395","p","pics/scaled/kiel_kuehl.jpg"
"audio-keyboard-response","343","1336160","0.0-17.0-0.59","duvs","","","","","","null","null","audio_projekt/tier.wav"
"image-keyboard-response","344","1336387","0.0-17.0-1.59","duvs","","","","","","225","q","pics/scaled/tier_tour.jpg"
"audio-keyboard-response","345","1338204","0.0-17.0-0.60","duvs","","","","","","null","null","audio_projekt/kiel.wav"
"image-keyboard-response","346","1338458","0.0-17.0-1.60","duvs","","","","","","252","q","pics/scaled/kiel_kuehl.jpg"
"audio-keyboard-response","347","1340061","0.0-17.0-0.61","duvs","","","","","","null","null","audio_projekt/tuer.wav"
"image-keyboard-response","348","1340309","0.0-17.0-1.61","duvs","","","","","","246","p","pics/scaled/tuer_tour.jpg"
"audio-keyboard-response","349","1342384","0.0-17.0-0.62","duvs","","","","","","null","null","audio_projekt/spuelen2.wav"
"image-keyboard-response","350","1343347","0.0-17.0-1.62","duvs","","","","","","961","p","pics/scaled/spielen_spuelen.jpg"
"audio-keyboard-response","351","1345448","0.0-17.0-0.63","duvs","","","","","","null","null","audio_projekt/spulen.wav"
"image-keyboard-response","352","1345947","0.0-17.0-1.63","duvs","","","","","","497","p","pics/scaled/spulen_spuelen.jpg"
"audio-keyboard-response","353","1347770","0.0-17.0-0.64","duvs","","","","","","null","null","audio_projekt/lieder.wav"
"image-keyboard-response","354","1348042","0.0-17.0-1.64","duvs","","","","","","269","p","pics/scaled/lieder_leder.jpg"
"audio-keyboard-response","355","1349720","0.0-17.0-0.65","duvs","","","","","","null","null","audio_projekt/buehne.wav"
"image-keyboard-response","356","1349944","0.0-17.0-1.65","duvs","","","","","","222","p","pics/scaled/biene_buehne.png"
