"trial_type","trial_index","time_elapsed","internal_node_id","subject","success","timeout","failed_images","failed_audio","failed_video","rt","response","stimulus"
"pavlovia","0","567","0.0-0.0","h04g","","","","","","","",""
"preload","1","567","0.0-1.0","h04g","true","false","[]","[]","[]","","",""
"survey-html-form","2","4219","0.0-2.0","h04g","","","","","","3651","{""code"":""5ea66a5c2b2466678f97bcdf""}",""
"html-button-response","3","6265","0.0-3.0","h04g","","","","","","2043","0","<h2>Willkommen zum Experiment!</h2><div class=""myDiv""><p>Vielen Dank f&uuml;r Ihr Interesse an dieser Studie. Wir bitten Sie <strong>Kopfh&ouml;rer</strong> daf&uuml;r zu verwenden.</p></div><div><img src=""pics/headphones.png"" title=""Earbuds are also fine"" width=""250"" height=""200"" class=""center""></div><div class=""myDiv""><p>Das Experiment besteht aus zwei Teilen:</p> <ol> <li>Eine <strong>Unterscheidungsaufgabe,</strong> in der Sie zwei W&ouml;rter h&ouml;ren. Im Anschluss sollen Sie feststellen, ob diese W&ouml;rter gleich oder unterschiedlich sind;</li><li>Eine <strong>Identifikationsaufgabe,</strong> in der Sie nur ein Wort h&ouml;ren, wobei Ihnen aber zwei Bilder gezeigt werden. Ihre Aufgabe ist es, dasjenige Bild auszuw&auml;hlen, das das geh&ouml;rte Wort darstellt.</li> </ol><p>Wir bitten Sie um Ihre Zustimmung, bevor wir Ihre Daten sammeln und verwenden. Bitte klicken Sie auf den ""Start""-Button, um Ihre Zustimmung zu geben. Anschlie&szlig;end werden wir ein paar Fragen zu Ihren Sprachkenntnissen stellen. Danach k&ouml;nnen Sie das Experiment starten. </p></div>"
"survey-html-form","4","13100","0.0-4.0","h04g","","","","","","6834","{""zustimmung"":""on""}",""
"survey-html-form","5","37118","0.0-5.0","h04g","","","","","","24016","{""native"":""Englisch"",""AOL"":""18"",""LearnType5"":""classesabroad"",""which"":"""",""AOA"":""18"",""timespent"":""12 J""}",""
"audio-button-response","6","40633","0.0-6.0-0.0","h04g","","","","","","3257","1","audio_projekt/treffen1.wav"
"html-keyboard-response","7","42337","0.0-7.0","h04g","","","","","","1701","enter","<h2>Teil 1: Unterscheidungsaufgabe</h2><div class=""myDiv""><p>In diesem Teil des Experimentes werden Sie im Abstand von 1.5 Sekunden <b>zwei W&ouml;rter</b> h&ouml;ren.</p><ul><li>Ihre Aufgabe ist es, festzustellen, ob diese W&ouml;rter <b>gleich oder unterschiedlich</b> sind. Wenn es einen Unterschied gibt, besteht dieser nur aus einem Vokal. </li> <li>Dr&uuml;cken Sie die <b>Taste Q</b>, wenn die W&ouml;rter gleich sind. Dr&uuml;cken Sie die <b>Taste P</b>, wenn die W&ouml;rter unterschiedlich sind.</li><li>Bitte warten Sie, bis Sie <b>beide Wörter gehört haben</b>, bevor Sie eine Taste drücken. Aber Achtung: Sie haben nur <b>5 Sekunden</b>, um eine Option auszuw&auml;hlen! &Uuml;berlegen Sie daher bitte nicht zu lange.</li></ul><br><p>Dr&uuml;cken Sie eine beliebige Taste, um ein paar Testversuche zu machen.</p></ul></div>"
"audio-keyboard-response","8","45958","0.0-8.0-0.0","h04g","","","","","","null","null","audio_projekt/treffen1500triefen.wav"
"html-keyboard-response","9","46256","0.0-8.0-1.0","h04g","","","","","","297","p","<div></div>"
"audio-keyboard-response","10","50564","0.0-8.0-0.1","h04g","","","","","","null","null","audio_projekt/treffen1500treffen.wav"
"html-keyboard-response","11","51008","0.0-8.0-1.1","h04g","","","","","","444","q","<div></div>"
"html-keyboard-response","12","54797","0.0-9.0","h04g","","","","","","2986","enter","<p>Gut! Jetzt f&auml;ngt der erste Teil des Experiments an. Dieser Teil dauert ca. 10 Minuten.</p><br><p>Bitte dr&uuml;cken Sie eine beliebige Taste, um fortzufahren.<div style=""height:30px; width:100%""></div>"
"audio-keyboard-response","13","57904","0.0-10.0-0.0","h04g","","","","","","null","null","audio_projekt/biene1500biene.wav"
"html-keyboard-response","14","58326","0.0-10.0-1.0","h04g","","","","","","420","q","<div></div>"
"audio-keyboard-response","15","62427","0.0-10.0-0.1","h04g","","","","","","null","null","audio_projekt/leder1500leder.wav"
"html-keyboard-response","16","62663","0.0-10.0-1.1","h04g","","","","","","236","q","<div></div>"
"audio-keyboard-response","17","67120","0.0-10.0-0.2","h04g","","","","","","null","null","audio_projekt/spuelen1500spulen.wav"
"html-keyboard-response","18","67321","0.0-10.0-1.2","h04g","","","","","","200","p","<div></div>"
"audio-keyboard-response","19","71214","0.0-10.0-0.3","h04g","","","","","","null","null","audio_projekt/tour1500tour.wav"
"html-keyboard-response","20","71661","0.0-10.0-1.3","h04g","","","","","","447","q","<div></div>"
"audio-keyboard-response","21","76081","0.0-10.0-0.4","h04g","","","","","","null","null","audio_projekt/segel1500siegel.wav"
"html-keyboard-response","22","76800","0.0-10.0-1.4","h04g","","","","","","719","p","<div></div>"
"audio-keyboard-response","23","81197","0.0-10.0-0.5","h04g","","","","","","null","null","audio_projekt/spuelen1500spulen.wav"
"html-keyboard-response","24","81763","0.0-10.0-1.5","h04g","","","","","","565","q","<div></div>"
"audio-keyboard-response","25","86321","0.0-10.0-0.6","h04g","","","","","","null","null","audio_projekt/siegel1500segel.wav"
"html-keyboard-response","26","86432","0.0-10.0-1.6","h04g","","","","","","110","p","<div></div>"
"audio-keyboard-response","27","90245","0.0-10.0-0.7","h04g","","","","","","null","null","audio_projekt/tier1500tier.wav"
"html-keyboard-response","28","90593","0.0-10.0-1.7","h04g","","","","","","348","p","<div></div>"
"audio-keyboard-response","29","94594","0.0-10.0-0.8","h04g","","","","","","null","null","audio_projekt/blueten1500blueten.wav"
"html-keyboard-response","30","94907","0.0-10.0-1.8","h04g","","","","","","312","q","<div></div>"
"audio-keyboard-response","31","99376","0.0-10.0-0.9","h04g","","","","","","null","null","audio_projekt/spulen1500spuelen.wav"
"html-keyboard-response","32","100080","0.0-10.0-1.9","h04g","","","","","","703","q","<div></div>"
"audio-keyboard-response","33","104667","0.0-10.0-0.10","h04g","","","","","","null","null","audio_projekt/spielen1500spielen.wav"
"html-keyboard-response","34","105206","0.0-10.0-1.10","h04g","","","","","","538","q","<div></div>"
"audio-keyboard-response","35","109871","0.0-10.0-0.11","h04g","","","","","","null","null","audio_projekt/spulen1500spielen.wav"
"html-keyboard-response","36","110240","0.0-10.0-1.11","h04g","","","","","","368","p","<div></div>"
"audio-keyboard-response","37","114050","0.0-10.0-0.12","h04g","","","","","","null","null","audio_projekt/tuer1500tour.wav"
"html-keyboard-response","38","114791","0.0-10.0-1.12","h04g","","","","","","739","p","<div></div>"
"audio-keyboard-response","39","118917","0.0-10.0-0.13","h04g","","","","","","null","null","audio_projekt/leder1500lieder.wav"
"html-keyboard-response","40","119462","0.0-10.0-1.13","h04g","","","","","","544","p","<div></div>"
"audio-keyboard-response","41","123611","0.0-10.0-0.14","h04g","","","","","","null","null","audio_projekt/kuehl1500kuehl.wav"
"html-keyboard-response","42","124186","0.0-10.0-1.14","h04g","","","","","","573","q","<div></div>"
"audio-keyboard-response","43","128219","0.0-10.0-0.15","h04g","","","","","","null","null","audio_projekt/kiel1500kuehl.wav"
"html-keyboard-response","44","128783","0.0-10.0-1.15","h04g","","","","","","563","p","<div></div>"
"audio-keyboard-response","45","132825","0.0-10.0-0.16","h04g","","","","","","null","null","audio_projekt/bluten1500bluten.wav"
"html-keyboard-response","46","133571","0.0-10.0-1.16","h04g","","","","","","745","q","<div></div>"
"audio-keyboard-response","47","138033","0.0-10.0-0.17","h04g","","","","","","null","null","audio_projekt/stuhl1500stuhl.wav"
"html-keyboard-response","48","138812","0.0-10.0-1.17","h04g","","","","","","778","q","<div></div>"
"audio-keyboard-response","49","143234","0.0-10.0-0.18","h04g","","","","","","null","null","audio_projekt/buehne1500biene.wav"
"html-keyboard-response","50","143382","0.0-10.0-1.18","h04g","","","","","","146","p","<div></div>"
"audio-keyboard-response","51","144338","0.0-10.0-0.19","h04g","","","","","","null","null","audio_projekt/tour1500tour.wav"
"html-keyboard-response","52","149341","0.0-10.0-1.19","h04g","","","","","","null","null","<div></div>"
"audio-keyboard-response","53","153222","0.0-10.0-0.20","h04g","","","","","","null","null","audio_projekt/biene1500buehne.wav"
"html-keyboard-response","54","153953","0.0-10.0-1.20","h04g","","","","","","729","p","<div></div>"
"audio-keyboard-response","55","157913","0.0-10.0-0.21","h04g","","","","","","null","null","audio_projekt/bluten1500bluten.wav"
"html-keyboard-response","56","158873","0.0-10.0-1.21","h04g","","","","","","959","q","<div></div>"
"audio-keyboard-response","57","163036","0.0-10.0-0.22","h04g","","","","","","null","null","audio_projekt/tour1500tuer.wav"
"html-keyboard-response","58","163260","0.0-10.0-1.22","h04g","","","","","","223","p","<div></div>"
"audio-keyboard-response","59","167129","0.0-10.0-0.23","h04g","","","","","","null","null","audio_projekt/biene1500buehne.wav"
"html-keyboard-response","60","167287","0.0-10.0-1.23","h04g","","","","","","157","p","<div></div>"
"audio-keyboard-response","61","171481","0.0-10.0-0.24","h04g","","","","","","null","null","audio_projekt/blueten1500bluten.wav"
"html-keyboard-response","62","172468","0.0-10.0-1.24","h04g","","","","","","986","q","<div></div>"
"audio-keyboard-response","63","176432","0.0-10.0-0.25","h04g","","","","","","null","null","audio_projekt/blueten1500bluten.wav"
"html-keyboard-response","64","177143","0.0-10.0-1.25","h04g","","","","","","709","q","<div></div>"
"audio-keyboard-response","65","181293","0.0-10.0-0.26","h04g","","","","","","null","null","audio_projekt/kiel1500kiel.wav"
"html-keyboard-response","66","181513","0.0-10.0-1.26","h04g","","","","","","220","q","<div></div>"
"audio-keyboard-response","67","186246","0.0-10.0-0.27","h04g","","","","","","null","null","audio_projekt/segel1500segel.wav"
"html-keyboard-response","68","186330","0.0-10.0-1.27","h04g","","","","","","83","q","<div></div>"
"audio-keyboard-response","69","190168","0.0-10.0-0.28","h04g","","","","","","null","null","audio_projekt/tier1500tour.wav"
"html-keyboard-response","70","190351","0.0-10.0-1.28","h04g","","","","","","182","p","<div></div>"
"audio-keyboard-response","71","194435","0.0-10.0-0.29","h04g","","","","","","null","null","audio_projekt/kuehl1500kiel.wav"
"html-keyboard-response","72","194666","0.0-10.0-1.29","h04g","","","","","","230","p","<div></div>"
"audio-keyboard-response","73","198616","0.0-10.0-0.30","h04g","","","","","","null","null","audio_projekt/blueten1500blueten.wav"
"html-keyboard-response","74","199062","0.0-10.0-1.30","h04g","","","","","","444","q","<div></div>"
"audio-keyboard-response","75","203053","0.0-10.0-0.31","h04g","","","","","","null","null","audio_projekt/leder1500lieder.wav"
"html-keyboard-response","76","203338","0.0-10.0-1.31","h04g","","","","","","284","p","<div></div>"
"audio-keyboard-response","77","207664","0.0-10.0-0.32","h04g","","","","","","null","null","audio_projekt/stuhl1500stiel.wav"
"html-keyboard-response","78","208148","0.0-10.0-1.32","h04g","","","","","","482","p","<div></div>"
"audio-keyboard-response","79","212524","0.0-10.0-0.33","h04g","","","","","","null","null","audio_projekt/spulen1500spuelen.wav"
"html-keyboard-response","80","213159","0.0-10.0-1.33","h04g","","","","","","634","q","<div></div>"
"audio-keyboard-response","81","217477","0.0-10.0-0.34","h04g","","","","","","null","null","audio_projekt/stuhl1500stuhl.wav"
"html-keyboard-response","82","217985","0.0-10.0-1.34","h04g","","","","","","507","q","<div></div>"
"audio-keyboard-response","83","222000","0.0-10.0-0.35","h04g","","","","","","null","null","audio_projekt/bluten1500blueten.wav"
"html-keyboard-response","84","223521","0.0-10.0-1.35","h04g","","","","","","1520","p","<div></div>"
"audio-keyboard-response","85","227630","0.0-10.0-0.36","h04g","","","","","","null","null","audio_projekt/lieder1500lieder.wav"
"html-keyboard-response","86","228067","0.0-10.0-1.36","h04g","","","","","","436","q","<div></div>"
"audio-keyboard-response","87","231898","0.0-10.0-0.37","h04g","","","","","","null","null","audio_projekt/tuer1500tuer.wav"
"html-keyboard-response","88","232276","0.0-10.0-1.37","h04g","","","","","","377","q","<div></div>"
"audio-keyboard-response","89","236334","0.0-10.0-0.38","h04g","","","","","","null","null","audio_projekt/kiel1500kuehl.wav"
"html-keyboard-response","90","236407","0.0-10.0-1.38","h04g","","","","","","71","p","<div></div>"
"audio-keyboard-response","91","240772","0.0-10.0-0.39","h04g","","","","","","null","null","audio_projekt/stiel1500stuhl.wav"
"html-keyboard-response","92","241227","0.0-10.0-1.39","h04g","","","","","","455","p","<div></div>"
"audio-keyboard-response","93","245295","0.0-10.0-0.40","h04g","","","","","","null","null","audio_projekt/kuehl1500kiel.wav"
"html-keyboard-response","94","245965","0.0-10.0-1.40","h04g","","","","","","670","p","<div></div>"
"audio-keyboard-response","95","249902","0.0-10.0-0.41","h04g","","","","","","null","null","audio_projekt/buehne1500buehne.wav"
"html-keyboard-response","96","250399","0.0-10.0-1.41","h04g","","","","","","496","q","<div></div>"
"audio-keyboard-response","97","254254","0.0-10.0-0.42","h04g","","","","","","null","null","audio_projekt/tour1500tier.wav"
"html-keyboard-response","98","254486","0.0-10.0-1.42","h04g","","","","","","231","p","<div></div>"
"audio-keyboard-response","99","259119","0.0-10.0-0.43","h04g","","","","","","null","null","audio_projekt/spulen1500spulen.wav"
"html-keyboard-response","100","259239","0.0-10.0-1.43","h04g","","","","","","118","q","<div></div>"
"audio-keyboard-response","101","263386","0.0-10.0-0.44","h04g","","","","","","null","null","audio_projekt/lieder1500leder.wav"
"html-keyboard-response","102","263518","0.0-10.0-1.44","h04g","","","","","","130","p","<div></div>"
"audio-keyboard-response","103","267652","0.0-10.0-0.45","h04g","","","","","","null","null","audio_projekt/kiel1500kiel.wav"
"html-keyboard-response","104","268504","0.0-10.0-1.45","h04g","","","","","","850","p","<div></div>"
"audio-keyboard-response","105","272518","0.0-10.0-0.46","h04g","","","","","","null","null","audio_projekt/lieder1500leder.wav"
"html-keyboard-response","106","272636","0.0-10.0-1.46","h04g","","","","","","118","p","<div></div>"
"audio-keyboard-response","107","277038","0.0-10.0-0.47","h04g","","","","","","null","null","audio_projekt/segel1500segel.wav"
"html-keyboard-response","108","277162","0.0-10.0-1.47","h04g","","","","","","124","q","<div></div>"
"audio-keyboard-response","109","281817","0.0-10.0-0.48","h04g","","","","","","null","null","audio_projekt/spulen1500spielen.wav"
"html-keyboard-response","110","281846","0.0-10.0-1.48","h04g","","","","","","28","p","<div></div>"
"audio-keyboard-response","111","285742","0.0-10.0-0.49","h04g","","","","","","null","null","audio_projekt/bluten1500blueten.wav"
"html-keyboard-response","112","286993","0.0-10.0-1.49","h04g","","","","","","1250","p","<div></div>"
"audio-keyboard-response","113","290948","0.0-10.0-0.50","h04g","","","","","","null","null","audio_projekt/buehne1500buehne.wav"
"html-keyboard-response","114","291313","0.0-10.0-1.50","h04g","","","","","","365","q","<div></div>"
"audio-keyboard-response","115","295130","0.0-10.0-0.51","h04g","","","","","","null","null","audio_projekt/biene1500biene.wav"
"html-keyboard-response","116","295586","0.0-10.0-1.51","h04g","","","","","","456","p","<div></div>"
"audio-keyboard-response","117","300251","0.0-10.0-0.52","h04g","","","","","","null","null","audio_projekt/spuelen1500spuelen.wav"
"html-keyboard-response","118","300314","0.0-10.0-1.52","h04g","","","","","","61","q","<div></div>"
"audio-keyboard-response","119","304346","0.0-10.0-0.53","h04g","","","","","","null","null","audio_projekt/lieder1500lieder.wav"
"html-keyboard-response","120","305507","0.0-10.0-1.53","h04g","","","","","","1159","q","<div></div>"
"audio-keyboard-response","121","306473","0.0-10.0-0.54","h04g","","","","","","null","null","audio_projekt/siegel1500segel.wav"
"html-keyboard-response","122","311476","0.0-10.0-1.54","h04g","","","","","","null","null","<div></div>"
"audio-keyboard-response","123","316035","0.0-10.0-0.55","h04g","","","","","","null","null","audio_projekt/spulen1500spulen.wav"
"html-keyboard-response","124","316435","0.0-10.0-1.55","h04g","","","","","","398","q","<div></div>"
"audio-keyboard-response","125","317396","0.0-10.0-0.56","h04g","","","","","","null","null","audio_projekt/stiel1500stuhl.wav"
"html-keyboard-response","126","322399","0.0-10.0-1.56","h04g","","","","","","null","null","<div></div>"
"audio-keyboard-response","127","326704","0.0-10.0-0.57","h04g","","","","","","null","null","audio_projekt/stuhl1500stiel.wav"
"html-keyboard-response","128","327017","0.0-10.0-1.57","h04g","","","","","","312","p","<div></div>"
"audio-keyboard-response","129","331655","0.0-10.0-0.58","h04g","","","","","","null","null","audio_projekt/spielen1500spuelen.wav"
"html-keyboard-response","130","332265","0.0-10.0-1.58","h04g","","","","","","609","p","<div></div>"
"audio-keyboard-response","131","336002","0.0-10.0-0.59","h04g","","","","","","null","null","audio_projekt/tuer1500tuer.wav"
"html-keyboard-response","132","336621","0.0-10.0-1.59","h04g","","","","","","618","q","<div></div>"
"audio-keyboard-response","133","341124","0.0-10.0-0.60","h04g","","","","","","null","null","audio_projekt/spielen1500spielen.wav"
"html-keyboard-response","134","341198","0.0-10.0-1.60","h04g","","","","","","72","q","<div></div>"
"audio-keyboard-response","135","345562","0.0-10.0-0.61","h04g","","","","","","null","null","audio_projekt/stiel1500stiel.wav"
"html-keyboard-response","136","345732","0.0-10.0-1.61","h04g","","","","","","170","q","<div></div>"
"audio-keyboard-response","137","349657","0.0-10.0-0.62","h04g","","","","","","null","null","audio_projekt/buehne1500biene.wav"
"html-keyboard-response","138","349923","0.0-10.0-1.62","h04g","","","","","","265","p","<div></div>"
"audio-keyboard-response","139","354519","0.0-10.0-0.63","h04g","","","","","","null","null","audio_projekt/spuelen1500spuelen.wav"
"html-keyboard-response","140","354673","0.0-10.0-1.63","h04g","","","","","","153","q","<div></div>"
"audio-keyboard-response","141","358446","0.0-10.0-0.64","h04g","","","","","","null","null","audio_projekt/tour1500tuer.wav"
"html-keyboard-response","142","358881","0.0-10.0-1.64","h04g","","","","","","435","p","<div></div>"
"audio-keyboard-response","143","363567","0.0-10.0-0.65","h04g","","","","","","null","null","audio_projekt/spielen1500spulen.wav"
"html-keyboard-response","144","363714","0.0-10.0-1.65","h04g","","","","","","146","p","<div></div>"
"audio-keyboard-response","145","368173","0.0-10.0-0.66","h04g","","","","","","null","null","audio_projekt/siegel1500siegel.wav"
"html-keyboard-response","146","368314","0.0-10.0-1.66","h04g","","","","","","140","q","<div></div>"
"audio-keyboard-response","147","372955","0.0-10.0-0.67","h04g","","","","","","null","null","audio_projekt/spuelen1500spielen.wav"
"html-keyboard-response","148","373272","0.0-10.0-1.67","h04g","","","","","","317","p","<div></div>"
"audio-keyboard-response","149","377817","0.0-10.0-0.68","h04g","","","","","","null","null","audio_projekt/spielen1500spuelen.wav"
"html-keyboard-response","150","378221","0.0-10.0-1.68","h04g","","","","","","402","p","<div></div>"
"audio-keyboard-response","151","381999","0.0-10.0-0.69","h04g","","","","","","null","null","audio_projekt/tier1500tour.wav"
"html-keyboard-response","152","382826","0.0-10.0-1.69","h04g","","","","","","825","p","<div></div>"
"audio-keyboard-response","153","386862","0.0-10.0-0.70","h04g","","","","","","null","null","audio_projekt/kuehl1500kuehl.wav"
"html-keyboard-response","154","387676","0.0-10.0-1.70","h04g","","","","","","813","q","<div></div>"
"audio-keyboard-response","155","391471","0.0-10.0-0.71","h04g","","","","","","null","null","audio_projekt/tuer1500tour.wav"
"html-keyboard-response","156","394204","0.0-10.0-1.71","h04g","","","","","","2733","p","<div></div>"
"audio-keyboard-response","157","398465","0.0-10.0-0.72","h04g","","","","","","null","null","audio_projekt/stiel1500stiel.wav"
"html-keyboard-response","158","399100","0.0-10.0-1.72","h04g","","","","","","633","q","<div></div>"
"audio-keyboard-response","159","403673","0.0-10.0-0.73","h04g","","","","","","null","null","audio_projekt/spielen1500spulen.wav"
"html-keyboard-response","160","404463","0.0-10.0-1.73","h04g","","","","","","788","p","<div></div>"
"audio-keyboard-response","161","408964","0.0-10.0-0.74","h04g","","","","","","null","null","audio_projekt/spuelen1500spielen.wav"
"html-keyboard-response","162","409631","0.0-10.0-1.74","h04g","","","","","","666","p","<div></div>"
"audio-keyboard-response","163","413403","0.0-10.0-0.75","h04g","","","","","","null","null","audio_projekt/tier1500tier.wav"
"html-keyboard-response","164","413978","0.0-10.0-1.75","h04g","","","","","","575","q","<div></div>"
"audio-keyboard-response","165","417754","0.0-10.0-0.76","h04g","","","","","","null","null","audio_projekt/tour1500tier.wav"
"html-keyboard-response","166","418206","0.0-10.0-1.76","h04g","","","","","","451","p","<div></div>"
"audio-keyboard-response","167","422616","0.0-10.0-0.77","h04g","","","","","","null","null","audio_projekt/segel1500siegel.wav"
"html-keyboard-response","168","423062","0.0-10.0-1.77","h04g","","","","","","444","p","<div></div>"
"audio-keyboard-response","169","427056","0.0-10.0-0.78","h04g","","","","","","null","null","audio_projekt/leder1500leder.wav"
"html-keyboard-response","170","427672","0.0-10.0-1.78","h04g","","","","","","615","q","<div></div>"
"audio-keyboard-response","171","432003","0.0-10.0-0.79","h04g","","","","","","null","null","audio_projekt/siegel1500siegel.wav"
"html-keyboard-response","172","432080","0.0-10.0-1.79","h04g","","","","","","77","q","<div></div>"
"html-keyboard-response","173","440122","0.0-11.0","h04g","","","","","","7239","enter","<h2>Pause</h2><div class=""myDiv""><p>Gut gemacht! Jetzt k&ouml;nnen Sie eine kleine Pause machen.</p></div><div><img src=""pics/coffee.png"" title=""Machen Sie eine Pause..."" width=""150"" height=""150"" class=""center""></div><div style=""height:20px; width:100%""></div><p>Wenn Sie bereit sind, dr&uuml;cken Sie eine beliebige Taste, um fortzufahren.</p>"
"html-keyboard-response","174","457004","0.0-12.0","h04g","","","","","","16880","enter","<h2>Teil 2: Identifikationsaufgabe: Vorbereitung 1</h2><div class=""myDiv""><p>In diesem Teil des Experimentes werden Sie nur ein Wort h&ouml;ren. </p><p>Anschlie&szlig;end werden zwei Bilder gezeigt. W&auml;hlen Sie das Bild aus, das das Wort darstellt.</p><p>Bevor die Aufgabe beginnt, werden die Bilder mit den entsprechenden W&ouml;rtern angezeigt. Sie werden jedes Bild zweimal sehen.</p><p>Dr&uuml;cken Sie bitte eine beliebige Taste, um die Bilder zu sehen.</p>"
"audio-button-response","175","461714","0.0-13.0-0.0-0.0","h04g","","","","","","4501","0","audio_projekt/blueten.wav"
"audio-button-response","176","463696","0.0-13.0-0.0-0.1","h04g","","","","","","1784","0","audio_projekt/beten1.wav"
"audio-button-response","177","465864","0.0-13.0-0.0-0.2","h04g","","","","","","1991","0","audio_projekt/tuer.wav"
"audio-button-response","178","469047","0.0-13.0-0.0-0.3","h04g","","","","","","2987","0","audio_projekt/bluten.wav"
"audio-button-response","179","470881","0.0-13.0-0.0-0.4","h04g","","","","","","1632","0","audio_projekt/buehne.wav"
"audio-button-response","180","472731","0.0-13.0-0.0-0.5","h04g","","","","","","1649","0","audio_projekt/leder.wav"
"audio-button-response","181","474733","0.0-13.0-0.0-0.6","h04g","","","","","","1795","0","audio_projekt/bieten1.wav"
"audio-button-response","182","476398","0.0-13.0-0.0-0.7","h04g","","","","","","1458","0","audio_projekt/spulen.wav"
"audio-button-response","183","478048","0.0-13.0-0.0-0.8","h04g","","","","","","1448","0","audio_projekt/biene.wav"
"audio-button-response","184","479998","0.0-13.0-0.0-0.9","h04g","","","","","","1744","0","audio_projekt/segel.wav"
"audio-button-response","185","482230","0.0-13.0-0.0-0.10","h04g","","","","","","2022","0","audio_projekt/stuhl.wav"
"audio-button-response","186","483615","0.0-13.0-0.0-0.11","h04g","","","","","","1187","0","audio_projekt/tier.wav"
"audio-button-response","187","484865","0.0-13.0-0.0-0.12","h04g","","","","","","1046","0","audio_projekt/treffen2.wav"
"audio-button-response","188","486514","0.0-13.0-0.0-0.13","h04g","","","","","","1449","0","audio_projekt/stiel.wav"
"audio-button-response","189","487831","0.0-13.0-0.0-0.14","h04g","","","","","","1111","0","audio_projekt/siegel.wav"
"audio-button-response","190","489880","0.0-13.0-0.0-0.15","h04g","","","","","","1869","0","audio_projekt/tour.wav"
"audio-button-response","191","495544","0.0-13.0-0.0-0.16","h04g","","","","","","5462","0","audio_projekt/lieder.wav"
"audio-button-response","192","498409","0.0-13.0-0.0-0.17","h04g","","","","","","2662","0","audio_projekt/spuelen2.wav"
"audio-button-response","193","500109","0.0-13.0-0.0-0.18","h04g","","","","","","1496","0","audio_projekt/kiel.wav"
"audio-button-response","194","501524","0.0-13.0-0.0-0.19","h04g","","","","","","1210","0","audio_projekt/kuehl.wav"
"audio-button-response","195","503007","0.0-13.0-0.0-0.20","h04g","","","","","","1279","0","audio_projekt/spielen2.wav"
"audio-button-response","196","505023","0.0-13.0-0.0-0.21","h04g","","","","","","1810","0","audio_projekt/triefen1.wav"
"audio-button-response","197","507372","0.0-13.0-0.1-0.22","h04g","","","","","","2347","0","audio_projekt/blueten.wav"
"audio-button-response","198","508839","0.0-13.0-0.1-0.23","h04g","","","","","","1465","0","audio_projekt/beten1.wav"
"audio-button-response","199","510255","0.0-13.0-0.1-0.24","h04g","","","","","","1414","0","audio_projekt/tuer.wav"
"audio-button-response","200","512420","0.0-13.0-0.1-0.25","h04g","","","","","","2163","0","audio_projekt/bluten.wav"
"audio-button-response","201","513655","0.0-13.0-0.1-0.26","h04g","","","","","","1234","0","audio_projekt/buehne.wav"
"audio-button-response","202","515671","0.0-13.0-0.1-0.27","h04g","","","","","","2013","0","audio_projekt/leder.wav"
"audio-button-response","203","518353","0.0-13.0-0.1-0.28","h04g","","","","","","2680","0","audio_projekt/bieten1.wav"
"audio-button-response","204","520204","0.0-13.0-0.1-0.29","h04g","","","","","","1848","0","audio_projekt/spulen.wav"
"audio-button-response","205","521704","0.0-13.0-0.1-0.30","h04g","","","","","","1498","0","audio_projekt/biene.wav"
"audio-button-response","206","523003","0.0-13.0-0.1-0.31","h04g","","","","","","1298","0","audio_projekt/segel.wav"
"audio-button-response","207","524170","0.0-13.0-0.1-0.32","h04g","","","","","","1164","0","audio_projekt/stuhl.wav"
"audio-button-response","208","525603","0.0-13.0-0.1-0.33","h04g","","","","","","1431","0","audio_projekt/tier.wav"
"audio-button-response","209","527353","0.0-13.0-0.1-0.34","h04g","","","","","","1747","0","audio_projekt/treffen2.wav"
"audio-button-response","210","528670","0.0-13.0-0.1-0.35","h04g","","","","","","1315","0","audio_projekt/stiel.wav"
"audio-button-response","211","529819","0.0-13.0-0.1-0.36","h04g","","","","","","1148","0","audio_projekt/siegel.wav"
"audio-button-response","212","531053","0.0-13.0-0.1-0.37","h04g","","","","","","1232","0","audio_projekt/tour.wav"
"audio-button-response","213","532153","0.0-13.0-0.1-0.38","h04g","","","","","","1097","0","audio_projekt/lieder.wav"
"audio-button-response","214","533452","0.0-13.0-0.1-0.39","h04g","","","","","","1297","0","audio_projekt/spuelen2.wav"
"audio-button-response","215","534686","0.0-13.0-0.1-0.40","h04g","","","","","","1231","0","audio_projekt/kiel.wav"
"audio-button-response","216","535919","0.0-13.0-0.1-0.41","h04g","","","","","","1231","0","audio_projekt/kuehl.wav"
"audio-button-response","217","536953","0.0-13.0-0.1-0.42","h04g","","","","","","1031","0","audio_projekt/spielen2.wav"
"audio-button-response","218","538053","0.0-13.0-0.1-0.43","h04g","","","","","","1098","0","audio_projekt/triefen1.wav"
"html-keyboard-response","219","543027","0.0-14.0","h04g","","","","","","4972","enter","<h2>Teil 2: Identifikationsaufgabe: Vorbereitung 2</h2><div class=""myDiv""><p>Jetzt können Sie einen kurzen Probedurchlauf f&uuml;r diesen Teil des Experiments machen.</p><p>W&auml;hlen Sie das Bild aus, das das Wort darstellt. <ul><li>Dr&uuml;cken Sie die <b>Taste Q</b>, um das <b>linke</b> Bild auszuw&auml;hlen. Dr&uuml;cken Sie die <b>Taste P</b>, um das <b>rechte</b> Bild auszuw&auml;hlen.</li> <li>Sie haben 5 Sekunden Zeit, um sich f&uuml;r eines der Bilder zu entscheiden. </li><li>Bitte warten Sie, bis Sie <b>das ganze Wort gehört haben</b>, bevor Sie eine Taste drücken.</li></ul></p><p>Dr&uuml;cken Sie eine beliebige Taste, um den Probedurchlauf anzufangen.</p>"
"audio-keyboard-response","220","544367","0.0-15.0-0.0","h04g","","","","","","null","null","audio_projekt/treffen2.wav"
"image-keyboard-response","221","545386","0.0-15.0-1.0","h04g","","","","","","1016","p","pics/scaled/triefen_treffen.png"
"audio-keyboard-response","222","547268","0.0-15.0-0.1","h04g","","","","","","null","null","audio_projekt/beten1.wav"
"image-keyboard-response","223","547875","0.0-15.0-1.1","h04g","","","","","","606","p","pics/scaled/bieten_beten.jpg"
"html-keyboard-response","224","550405","0.0-16.0","h04g","","","","","","1727","enter","<h2>Teil 2: Identifikationsaufgabe</h2><p>Jetzt sind Sie darauf vorbereitet, die Identifikationsaufgabe auszuführen.</p><p>Sind Sie bereit? Dann dr&uuml;cken Sie eine beliebige Taste, um anzufangen.</p>"
"audio-keyboard-response","225","551364","0.0-17.0-0.0","h04g","","","","","","null","null","audio_projekt/tour.wav"
"image-keyboard-response","226","553696","0.0-17.0-1.0","h04g","","","","","","2329","p","pics/scaled/tier_tour.jpg"
"audio-keyboard-response","227","555801","0.0-17.0-0.1","h04g","","","","","","null","null","audio_projekt/stiel.wav"
"image-keyboard-response","228","556382","0.0-17.0-1.1","h04g","","","","","","580","q","pics/scaled/stiel2_stuhl.jpg"
"audio-keyboard-response","229","558190","0.0-17.0-0.2","h04g","","","","","","null","null","audio_projekt/tier.wav"
"image-keyboard-response","230","559423","0.0-17.0-1.2","h04g","","","","","","1230","q","pics/scaled/tier_tour.jpg"
"audio-keyboard-response","231","561262","0.0-17.0-0.3","h04g","","","","","","null","null","audio_projekt/blueten.wav"
"image-keyboard-response","232","566266","0.0-17.0-1.3","h04g","","","","","","null","null","pics/scaled/bluten_blueten.jpg"
"audio-keyboard-response","233","568090","0.0-17.0-0.4","h04g","","","","","","null","null","audio_projekt/tour.wav"
"image-keyboard-response","234","569086","0.0-17.0-1.4","h04g","","","","","","995","p","pics/scaled/tier_tour.jpg"
"audio-keyboard-response","235","570989","0.0-17.0-0.5","h04g","","","","","","null","null","audio_projekt/buehne.wav"
"image-keyboard-response","236","571548","0.0-17.0-1.5","h04g","","","","","","558","p","pics/scaled/biene_buehne.png"
"audio-keyboard-response","237","572527","0.0-17.0-0.6","h04g","","","","","","null","null","audio_projekt/spulen.wav"
"image-keyboard-response","238","576916","0.0-17.0-1.6","h04g","","","","","","4388","p","pics/scaled/spulen_spuelen.jpg"
"audio-keyboard-response","239","577920","0.0-17.0-0.7","h04g","","","","","","null","null","audio_projekt/spulen.wav"
"image-keyboard-response","240","581490","0.0-17.0-1.7","h04g","","","","","","3569","q","pics/scaled/spielen_spulen.jpg"
"audio-keyboard-response","241","583277","0.0-17.0-0.8","h04g","","","","","","null","null","audio_projekt/tuer.wav"
"image-keyboard-response","242","584924","0.0-17.0-1.8","h04g","","","","","","1645","p","pics/scaled/tuer_tour.jpg"
"audio-keyboard-response","243","586691","0.0-17.0-0.9","h04g","","","","","","null","null","audio_projekt/tier.wav"
"image-keyboard-response","244","587422","0.0-17.0-1.9","h04g","","","","","","730","q","pics/scaled/tier_tour.jpg"
"audio-keyboard-response","245","589508","0.0-17.0-0.10","h04g","","","","","","null","null","audio_projekt/kiel.wav"
"image-keyboard-response","246","589939","0.0-17.0-1.10","h04g","","","","","","430","q","pics/scaled/kiel_kuehl.jpg"
"audio-keyboard-response","247","592067","0.0-17.0-0.11","h04g","","","","","","null","null","audio_projekt/siegel.wav"
"image-keyboard-response","248","592312","0.0-17.0-1.11","h04g","","","","","","243","p","pics/scaled/siegel_segel.jpg"
"audio-keyboard-response","249","594456","0.0-17.0-0.12","h04g","","","","","","null","null","audio_projekt/siegel.wav"
"image-keyboard-response","250","594552","0.0-17.0-1.12","h04g","","","","","","95","p","pics/scaled/siegel_segel.jpg"
"audio-keyboard-response","251","596760","0.0-17.0-0.13","h04g","","","","","","null","null","audio_projekt/spuelen2.wav"
"image-keyboard-response","252","596828","0.0-17.0-1.13","h04g","","","","","","67","p","pics/scaled/spielen_spuelen.jpg"
"audio-keyboard-response","253","598805","0.0-17.0-0.14","h04g","","","","","","null","null","audio_projekt/leder.wav"
"image-keyboard-response","254","599199","0.0-17.0-1.14","h04g","","","","","","391","q","pics/scaled/lieder_leder.jpg"
"audio-keyboard-response","255","601109","0.0-17.0-0.15","h04g","","","","","","null","null","audio_projekt/biene.wav"
"image-keyboard-response","256","601636","0.0-17.0-1.15","h04g","","","","","","524","q","pics/scaled/biene_buehne.png"
"audio-keyboard-response","257","603498","0.0-17.0-0.16","h04g","","","","","","null","null","audio_projekt/biene.wav"
"image-keyboard-response","258","603876","0.0-17.0-1.16","h04g","","","","","","376","q","pics/scaled/biene_buehne.png"
"audio-keyboard-response","259","605976","0.0-17.0-0.17","h04g","","","","","","null","null","audio_projekt/segel.wav"
"image-keyboard-response","260","606149","0.0-17.0-1.17","h04g","","","","","","171","q","pics/scaled/siegel_segel.jpg"
"audio-keyboard-response","261","607086","0.0-17.0-0.18","h04g","","","","","","null","null","audio_projekt/spuelen2.wav"
"image-keyboard-response","262","609813","0.0-17.0-1.18","h04g","","","","","","2726","q","pics/scaled/spielen_spuelen.jpg"
"audio-keyboard-response","263","612034","0.0-17.0-0.19","h04g","","","","","","null","null","audio_projekt/spielen2.wav"
"image-keyboard-response","264","612238","0.0-17.0-1.19","h04g","","","","","","203","p","pics/scaled/spielen_spulen.jpg"
"audio-keyboard-response","265","614425","0.0-17.0-0.20","h04g","","","","","","null","null","audio_projekt/spulen.wav"
"image-keyboard-response","266","614632","0.0-17.0-1.20","h04g","","","","","","206","q","pics/scaled/spielen_spulen.jpg"
"audio-keyboard-response","267","616728","0.0-17.0-0.21","h04g","","","","","","null","null","audio_projekt/stuhl.wav"
"image-keyboard-response","268","616895","0.0-17.0-1.21","h04g","","","","","","166","p","pics/scaled/stiel2_stuhl.jpg"
"audio-keyboard-response","269","617850","0.0-17.0-0.22","h04g","","","","","","null","null","audio_projekt/spuelen2.wav"
"image-keyboard-response","270","620349","0.0-17.0-1.22","h04g","","","","","","2498","q","pics/scaled/spulen_spuelen.jpg"
"audio-keyboard-response","271","622445","0.0-17.0-0.23","h04g","","","","","","null","null","audio_projekt/siegel.wav"
"image-keyboard-response","272","622600","0.0-17.0-1.23","h04g","","","","","","154","p","pics/scaled/siegel_segel.jpg"
"audio-keyboard-response","273","624490","0.0-17.0-0.24","h04g","","","","","","null","null","audio_projekt/tour.wav"
"image-keyboard-response","274","628335","0.0-17.0-1.24","h04g","","","","","","3842","p","pics/scaled/tuer_tour.jpg"
"audio-keyboard-response","275","630552","0.0-17.0-0.25","h04g","","","","","","null","null","audio_projekt/spulen.wav"
"image-keyboard-response","276","630633","0.0-17.0-1.25","h04g","","","","","","80","p","pics/scaled/spulen_spuelen.jpg"
"audio-keyboard-response","277","632597","0.0-17.0-0.26","h04g","","","","","","null","null","audio_projekt/lieder.wav"
"image-keyboard-response","278","633012","0.0-17.0-1.26","h04g","","","","","","414","p","pics/scaled/lieder_leder.jpg"
"audio-keyboard-response","279","634904","0.0-17.0-0.27","h04g","","","","","","null","null","audio_projekt/buehne.wav"
"image-keyboard-response","280","635179","0.0-17.0-1.27","h04g","","","","","","274","p","pics/scaled/biene_buehne.png"
"audio-keyboard-response","281","636099","0.0-17.0-0.28","h04g","","","","","","null","null","audio_projekt/spulen.wav"
"image-keyboard-response","282","638088","0.0-17.0-1.28","h04g","","","","","","1988","p","pics/scaled/spielen_spulen.jpg"
"audio-keyboard-response","283","640021","0.0-17.0-0.29","h04g","","","","","","null","null","audio_projekt/kuehl.wav"
"image-keyboard-response","284","641018","0.0-17.0-1.29","h04g","","","","","","996","p","pics/scaled/kiel_kuehl.jpg"
"audio-keyboard-response","285","643266","0.0-17.0-0.30","h04g","","","","","","null","null","audio_projekt/spielen2.wav"
"image-keyboard-response","286","643409","0.0-17.0-1.30","h04g","","","","","","142","p","pics/scaled/spielen_spulen.jpg"
"audio-keyboard-response","287","645229","0.0-17.0-0.31","h04g","","","","","","null","null","audio_projekt/tuer.wav"
"image-keyboard-response","288","646457","0.0-17.0-1.31","h04g","","","","","","1226","p","pics/scaled/tuer_tour.jpg"
"audio-keyboard-response","289","648384","0.0-17.0-0.32","h04g","","","","","","null","null","audio_projekt/kiel.wav"
"image-keyboard-response","290","648762","0.0-17.0-1.32","h04g","","","","","","376","q","pics/scaled/kiel_kuehl.jpg"
"audio-keyboard-response","291","650690","0.0-17.0-0.33","h04g","","","","","","null","null","audio_projekt/lieder.wav"
"image-keyboard-response","292","651022","0.0-17.0-1.33","h04g","","","","","","330","p","pics/scaled/lieder_leder.jpg"
"audio-keyboard-response","293","652909","0.0-17.0-0.34","h04g","","","","","","null","null","audio_projekt/blueten.wav"
"image-keyboard-response","294","657063","0.0-17.0-1.34","h04g","","","","","","4152","q","pics/scaled/bluten_blueten.jpg"
"audio-keyboard-response","295","659307","0.0-17.0-0.35","h04g","","","","","","null","null","audio_projekt/spielen.wav"
"image-keyboard-response","296","659493","0.0-17.0-1.35","h04g","","","","","","185","q","pics/scaled/spielen_spuelen.jpg"
"audio-keyboard-response","297","661444","0.0-17.0-0.36","h04g","","","","","","null","null","audio_projekt/leder.wav"
"image-keyboard-response","298","662030","0.0-17.0-1.36","h04g","","","","","","584","q","pics/scaled/lieder_leder.jpg"
"audio-keyboard-response","299","662992","0.0-17.0-0.37","h04g","","","","","","null","null","audio_projekt/spulen.wav"
"image-keyboard-response","300","665497","0.0-17.0-1.37","h04g","","","","","","2503","q","pics/scaled/spulen_spuelen.jpg"
"audio-keyboard-response","301","667587","0.0-17.0-0.38","h04g","","","","","","null","null","audio_projekt/spuelen2.wav"
"image-keyboard-response","302","668043","0.0-17.0-1.38","h04g","","","","","","454","p","pics/scaled/spulen_spuelen.jpg"
"audio-keyboard-response","303","669887","0.0-17.0-0.39","h04g","","","","","","null","null","audio_projekt/blueten.wav"
"image-keyboard-response","304","671908","0.0-17.0-1.39","h04g","","","","","","2019","q","pics/scaled/bluten_blueten.jpg"
"audio-keyboard-response","305","673815","0.0-17.0-0.40","h04g","","","","","","null","null","audio_projekt/tier.wav"
"image-keyboard-response","306","674340","0.0-17.0-1.40","h04g","","","","","","523","q","pics/scaled/tier_tour.jpg"
"audio-keyboard-response","307","676119","0.0-17.0-0.41","h04g","","","","","","null","null","audio_projekt/tour.wav"
"image-keyboard-response","308","676762","0.0-17.0-1.41","h04g","","","","","","641","q","pics/scaled/tuer_tour.jpg"
"audio-keyboard-response","309","678594","0.0-17.0-0.42","h04g","","","","","","null","null","audio_projekt/tour.wav"
"image-keyboard-response","310","679574","0.0-17.0-1.42","h04g","","","","","","978","p","pics/scaled/tier_tour.jpg"
"audio-keyboard-response","311","681837","0.0-17.0-0.43","h04g","","","","","","null","null","audio_projekt/spuelen2.wav"
"image-keyboard-response","312","681921","0.0-17.0-1.43","h04g","","","","","","82","p","pics/scaled/spulen_spuelen.jpg"
"audio-keyboard-response","313","682877","0.0-17.0-0.44","h04g","","","","","","null","null","audio_projekt/bluten.wav"
"image-keyboard-response","314","684579","0.0-17.0-1.44","h04g","","","","","","1700","p","pics/scaled/bluten_blueten.jpg"
"audio-keyboard-response","315","686701","0.0-17.0-0.45","h04g","","","","","","null","null","audio_projekt/segel.wav"
"image-keyboard-response","316","686790","0.0-17.0-1.45","h04g","","","","","","88","q","pics/scaled/siegel_segel.jpg"
"audio-keyboard-response","317","688920","0.0-17.0-0.46","h04g","","","","","","null","null","audio_projekt/stuhl.wav"
"image-keyboard-response","318","689186","0.0-17.0-1.46","h04g","","","","","","265","p","pics/scaled/stiel2_stuhl.jpg"
"audio-keyboard-response","319","691139","0.0-17.0-0.47","h04g","","","","","","null","null","audio_projekt/lieder.wav"
"image-keyboard-response","320","691410","0.0-17.0-1.47","h04g","","","","","","271","p","pics/scaled/lieder_leder.jpg"
"audio-keyboard-response","321","693527","0.0-17.0-0.48","h04g","","","","","","null","null","audio_projekt/stuhl.wav"
"image-keyboard-response","322","693593","0.0-17.0-1.48","h04g","","","","","","64","p","pics/scaled/stiel2_stuhl.jpg"
"audio-keyboard-response","323","695490","0.0-17.0-0.49","h04g","","","","","","null","null","audio_projekt/buehne.wav"
"image-keyboard-response","324","695879","0.0-17.0-1.49","h04g","","","","","","387","p","pics/scaled/biene_buehne.png"
"audio-keyboard-response","325","698050","0.0-17.0-0.50","h04g","","","","","","null","null","audio_projekt/stiel.wav"
"image-keyboard-response","326","698224","0.0-17.0-1.50","h04g","","","","","","172","q","pics/scaled/stiel2_stuhl.jpg"
"audio-keyboard-response","327","700184","0.0-17.0-0.51","h04g","","","","","","null","null","audio_projekt/kuehl.wav"
"image-keyboard-response","328","700403","0.0-17.0-1.51","h04g","","","","","","217","p","pics/scaled/kiel_kuehl.jpg"
"audio-keyboard-response","329","701380","0.0-17.0-0.52","h04g","","","","","","null","null","audio_projekt/stiel.wav"
"image-keyboard-response","330","703037","0.0-17.0-1.52","h04g","","","","","","1656","p","pics/scaled/stiel2_stuhl.jpg"
"audio-keyboard-response","331","704706","0.0-17.0-0.53","h04g","","","","","","null","null","audio_projekt/bluten.wav"
"image-keyboard-response","332","705547","0.0-17.0-1.53","h04g","","","","","","840","p","pics/scaled/bluten_blueten.jpg"
"audio-keyboard-response","333","707860","0.0-17.0-0.54","h04g","","","","","","null","null","audio_projekt/spielen.wav"
"image-keyboard-response","334","708311","0.0-17.0-1.54","h04g","","","","","","450","q","pics/scaled/spielen_spuelen.jpg"
"audio-keyboard-response","335","710253","0.0-17.0-0.55","h04g","","","","","","null","null","audio_projekt/kiel.wav"
"image-keyboard-response","336","710974","0.0-17.0-1.55","h04g","","","","","","720","q","pics/scaled/kiel_kuehl.jpg"
"audio-keyboard-response","337","712985","0.0-17.0-0.56","h04g","","","","","","null","null","audio_projekt/leder.wav"
"image-keyboard-response","338","713369","0.0-17.0-1.56","h04g","","","","","","382","q","pics/scaled/lieder_leder.jpg"
"audio-keyboard-response","339","715629","0.0-17.0-0.57","h04g","","","","","","null","null","audio_projekt/spielen2.wav"
"image-keyboard-response","340","716501","0.0-17.0-1.57","h04g","","","","","","870","p","pics/scaled/spielen_spulen.jpg"
"audio-keyboard-response","341","718700","0.0-17.0-0.58","h04g","","","","","","null","null","audio_projekt/spuelen2.wav"
"image-keyboard-response","342","719406","0.0-17.0-1.58","h04g","","","","","","704","p","pics/scaled/spielen_spuelen.jpg"
"audio-keyboard-response","343","721602","0.0-17.0-0.59","h04g","","","","","","null","null","audio_projekt/spielen.wav"
"image-keyboard-response","344","721780","0.0-17.0-1.59","h04g","","","","","","177","q","pics/scaled/spielen_spuelen.jpg"
"audio-keyboard-response","345","723650","0.0-17.0-0.60","h04g","","","","","","null","null","audio_projekt/bluten.wav"
"image-keyboard-response","346","724449","0.0-17.0-1.60","h04g","","","","","","797","p","pics/scaled/bluten_blueten.jpg"
"audio-keyboard-response","347","726210","0.0-17.0-0.61","h04g","","","","","","null","null","audio_projekt/tuer.wav"
"image-keyboard-response","348","727730","0.0-17.0-1.61","h04g","","","","","","1518","p","pics/scaled/tuer_tour.jpg"
"audio-keyboard-response","349","729794","0.0-17.0-0.62","h04g","","","","","","null","null","audio_projekt/kuehl.wav"
"image-keyboard-response","350","730272","0.0-17.0-1.62","h04g","","","","","","476","p","pics/scaled/kiel_kuehl.jpg"
"audio-keyboard-response","351","732268","0.0-17.0-0.63","h04g","","","","","","null","null","audio_projekt/biene.wav"
"image-keyboard-response","352","732544","0.0-17.0-1.63","h04g","","","","","","274","q","pics/scaled/biene_buehne.png"
"audio-keyboard-response","353","734655","0.0-17.0-0.64","h04g","","","","","","null","null","audio_projekt/segel.wav"
"image-keyboard-response","354","734873","0.0-17.0-1.64","h04g","","","","","","216","q","pics/scaled/siegel_segel.jpg"
"audio-keyboard-response","355","736706","0.0-17.0-0.65","h04g","","","","","","null","null","audio_projekt/tour.wav"
"image-keyboard-response","356","737359","0.0-17.0-1.65","h04g","","","","","","651","q","pics/scaled/tuer_tour.jpg"
