"trial_type","trial_index","time_elapsed","internal_node_id","subject","success","timeout","failed_images","failed_audio","failed_video","rt","response","stimulus"
"pavlovia","0","698","0.0-0.0","p8jp","","","","","","","",""
"preload","1","699","0.0-1.0","p8jp","true","false","[]","[]","[]","","",""
"survey-html-form","2","5378","0.0-2.0","p8jp","","","","","","4678","{""code"":""6691312ec3205fd775621748""}",""
"html-button-response","3","64127","0.0-3.0","p8jp","","","","","","58744","0","<h2>Willkommen zum Experiment!</h2><div class=""myDiv""><p>Vielen Dank f&uuml;r Ihr Interesse an dieser Studie. Wir bitten Sie <strong>Kopfh&ouml;rer</strong> daf&uuml;r zu verwenden.</p></div><div><img src=""pics/headphones.png"" title=""Earbuds are also fine"" width=""250"" height=""200"" class=""center""></div><div class=""myDiv""><p>Das Experiment besteht aus zwei Teilen:</p> <ol> <li>Eine <strong>Unterscheidungsaufgabe,</strong> in der Sie zwei W&ouml;rter h&ouml;ren. Im Anschluss sollen Sie feststellen, ob diese W&ouml;rter gleich oder unterschiedlich sind;</li><li>Eine <strong>Identifikationsaufgabe,</strong> in der Sie nur ein Wort h&ouml;ren, wobei Ihnen aber zwei Bilder gezeigt werden. Ihre Aufgabe ist es, dasjenige Bild auszuw&auml;hlen, das das geh&ouml;rte Wort darstellt.</li> </ol><p>Wir bitten Sie um Ihre Zustimmung, bevor wir Ihre Daten sammeln und verwenden. Bitte klicken Sie auf den ""Start""-Button, um Ihre Zustimmung zu geben. Anschlie&szlig;end werden wir ein paar Fragen zu Ihren Sprachkenntnissen stellen. Danach k&ouml;nnen Sie das Experiment starten. </p></div>"
"survey-html-form","4","89464","0.0-4.0","p8jp","","","","","","25334","{""zustimmung"":""on""}",""
"survey-html-form","5","297912","0.0-5.0","p8jp","","","","","","208443","{""native"":""Englisch"",""AOL"":""12"",""LearnType1"":""classeshome"",""LearnType2"":""selflearn"",""LearnType3"":""lgeschool"",""which"":""Der Deutschkurs in meinem Heimatland"",""AOA"":""-"",""timespent"":""-""}",""
"audio-button-response","6","305423","0.0-6.0-0.0","p8jp","","","","","","7265","0","audio_projekt/treffen1.wav"
"audio-button-response","7","315044","0.0-6.1-0.1","p8jp","","","","","","9619","0","audio_projekt/treffen1.wav"
"audio-button-response","8","316839","0.0-6.2-0.2","p8jp","","","","","","1792","1","audio_projekt/treffen1.wav"
"html-keyboard-response","9","352780","0.0-7.0","p8jp","","","","","","35938"," ","<h2>Teil 1: Unterscheidungsaufgabe</h2><div class=""myDiv""><p>In diesem Teil des Experimentes werden Sie im Abstand von 1.5 Sekunden <b>zwei W&ouml;rter</b> h&ouml;ren.</p><ul><li>Ihre Aufgabe ist es, festzustellen, ob diese W&ouml;rter <b>gleich oder unterschiedlich</b> sind. Wenn es einen Unterschied gibt, besteht dieser nur aus einem Vokal. </li> <li>Dr&uuml;cken Sie die <b>Taste Q</b>, wenn die W&ouml;rter gleich sind. Dr&uuml;cken Sie die <b>Taste P</b>, wenn die W&ouml;rter unterschiedlich sind.</li><li>Bitte warten Sie, bis Sie <b>beide Wörter gehört haben</b>, bevor Sie eine Taste drücken. Aber Achtung: Sie haben nur <b>5 Sekunden</b>, um eine Option auszuw&auml;hlen! &Uuml;berlegen Sie daher bitte nicht zu lange.</li></ul><br><p>Dr&uuml;cken Sie eine beliebige Taste, um ein paar Testversuche zu machen.</p></ul></div>"
"audio-keyboard-response","10","356054","0.0-8.0-0.0","p8jp","","","","","","null","null","audio_projekt/treffen1500triefen.wav"
"html-keyboard-response","11","358348","0.0-8.0-1.0","p8jp","","","","","","2293","p","<div></div>"
"audio-keyboard-response","12","362199","0.0-8.0-0.1","p8jp","","","","","","null","null","audio_projekt/treffen1500treffen.wav"
"html-keyboard-response","13","363185","0.0-8.0-1.1","p8jp","","","","","","985","q","<div></div>"
"html-keyboard-response","14","368740","0.0-9.0","p8jp","","","","","","4752","p","<p>Gut! Jetzt f&auml;ngt der erste Teil des Experiments an. Dieser Teil dauert ca. 10 Minuten.</p><br><p>Bitte dr&uuml;cken Sie eine beliebige Taste, um fortzufahren.<div style=""height:30px; width:100%""></div>"
"audio-keyboard-response","15","371570","0.0-10.0-0.0","p8jp","","","","","","null","null","audio_projekt/kiel1500kiel.wav"
"html-keyboard-response","16","374433","0.0-10.0-1.0","p8jp","","","","","","2861","q","<div></div>"
"audio-keyboard-response","17","378449","0.0-10.0-0.1","p8jp","","","","","","null","null","audio_projekt/segel1500siegel.wav"
"html-keyboard-response","18","379535","0.0-10.0-1.1","p8jp","","","","","","1086","p","<div></div>"
"audio-keyboard-response","19","383156","0.0-10.0-0.2","p8jp","","","","","","null","null","audio_projekt/bluten1500bluten.wav"
"html-keyboard-response","20","386798","0.0-10.0-1.2","p8jp","","","","","","3637","q","<div></div>"
"audio-keyboard-response","21","390942","0.0-10.0-0.3","p8jp","","","","","","null","null","audio_projekt/spuelen1500spuelen.wav"
"html-keyboard-response","22","392595","0.0-10.0-1.3","p8jp","","","","","","1652","q","<div></div>"
"audio-keyboard-response","23","396122","0.0-10.0-0.4","p8jp","","","","","","null","null","audio_projekt/kiel1500kiel.wav"
"html-keyboard-response","24","397679","0.0-10.0-1.4","p8jp","","","","","","1556","q","<div></div>"
"audio-keyboard-response","25","401337","0.0-10.0-0.5","p8jp","","","","","","null","null","audio_projekt/lieder1500leder.wav"
"html-keyboard-response","26","403766","0.0-10.0-1.5","p8jp","","","","","","2427","p","<div></div>"
"audio-keyboard-response","27","407370","0.0-10.0-0.6","p8jp","","","","","","null","null","audio_projekt/kuehl1500kuehl.wav"
"html-keyboard-response","28","409014","0.0-10.0-1.6","p8jp","","","","","","1642","q","<div></div>"
"audio-keyboard-response","29","413168","0.0-10.0-0.7","p8jp","","","","","","null","null","audio_projekt/spielen1500spuelen.wav"
"html-keyboard-response","30","413625","0.0-10.0-1.7","p8jp","","","","","","457","p","<div></div>"
"audio-keyboard-response","31","417194","0.0-10.0-0.8","p8jp","","","","","","null","null","audio_projekt/blueten1500bluten.wav"
"html-keyboard-response","32","417957","0.0-10.0-1.8","p8jp","","","","","","762","p","<div></div>"
"audio-keyboard-response","33","421334","0.0-10.0-0.9","p8jp","","","","","","null","null","audio_projekt/tier1500tier.wav"
"html-keyboard-response","34","421727","0.0-10.0-1.9","p8jp","","","","","","389","q","<div></div>"
"audio-keyboard-response","35","425741","0.0-10.0-0.10","p8jp","","","","","","null","null","audio_projekt/siegel1500siegel.wav"
"html-keyboard-response","36","425952","0.0-10.0-1.10","p8jp","","","","","","210","q","<div></div>"
"audio-keyboard-response","37","429321","0.0-10.0-0.11","p8jp","","","","","","null","null","audio_projekt/tuer1500tour.wav"
"html-keyboard-response","38","430733","0.0-10.0-1.11","p8jp","","","","","","1412","p","<div></div>"
"audio-keyboard-response","39","434690","0.0-10.0-0.12","p8jp","","","","","","null","null","audio_projekt/stuhl1500stuhl.wav"
"html-keyboard-response","40","435045","0.0-10.0-1.12","p8jp","","","","","","344","q","<div></div>"
"audio-keyboard-response","41","439074","0.0-10.0-0.13","p8jp","","","","","","null","null","audio_projekt/segel1500segel.wav"
"html-keyboard-response","42","439330","0.0-10.0-1.13","p8jp","","","","","","255","q","<div></div>"
"audio-keyboard-response","43","442692","0.0-10.0-0.14","p8jp","","","","","","null","null","audio_projekt/tuer1500tuer.wav"
"html-keyboard-response","44","444355","0.0-10.0-1.14","p8jp","","","","","","1661","q","<div></div>"
"audio-keyboard-response","45","447883","0.0-10.0-0.15","p8jp","","","","","","null","null","audio_projekt/biene1500buehne.wav"
"html-keyboard-response","46","449710","0.0-10.0-1.15","p8jp","","","","","","1825","p","<div></div>"
"audio-keyboard-response","47","453093","0.0-10.0-0.16","p8jp","","","","","","null","null","audio_projekt/tour1500tier.wav"
"html-keyboard-response","48","454192","0.0-10.0-1.16","p8jp","","","","","","1099","p","<div></div>"
"audio-keyboard-response","49","457663","0.0-10.0-0.17","p8jp","","","","","","null","null","audio_projekt/buehne1500biene.wav"
"html-keyboard-response","50","458174","0.0-10.0-1.17","p8jp","","","","","","499","p","<div></div>"
"audio-keyboard-response","51","461836","0.0-10.0-0.18","p8jp","","","","","","null","null","audio_projekt/leder1500leder.wav"
"html-keyboard-response","52","462628","0.0-10.0-1.18","p8jp","","","","","","790","q","<div></div>"
"audio-keyboard-response","53","466689","0.0-10.0-0.19","p8jp","","","","","","null","null","audio_projekt/spuelen1500spuelen.wav"
"html-keyboard-response","54","466835","0.0-10.0-1.19","p8jp","","","","","","146","q","<div></div>"
"audio-keyboard-response","55","470979","0.0-10.0-0.20","p8jp","","","","","","null","null","audio_projekt/spuelen1500spielen.wav"
"html-keyboard-response","56","471430","0.0-10.0-1.20","p8jp","","","","","","437","p","<div></div>"
"audio-keyboard-response","57","475461","0.0-10.0-0.21","p8jp","","","","","","null","null","audio_projekt/siegel1500segel.wav"
"html-keyboard-response","58","476257","0.0-10.0-1.21","p8jp","","","","","","795","p","<div></div>"
"audio-keyboard-response","59","479671","0.0-10.0-0.22","p8jp","","","","","","null","null","audio_projekt/buehne1500biene.wav"
"html-keyboard-response","60","480992","0.0-10.0-1.22","p8jp","","","","","","1320","p","<div></div>"
"audio-keyboard-response","61","484936","0.0-10.0-0.23","p8jp","","","","","","null","null","audio_projekt/segel1500segel.wav"
"html-keyboard-response","62","485101","0.0-10.0-1.23","p8jp","","","","","","165","q","<div></div>"
"audio-keyboard-response","63","488575","0.0-10.0-0.24","p8jp","","","","","","null","null","audio_projekt/blueten1500bluten.wav"
"html-keyboard-response","64","489784","0.0-10.0-1.24","p8jp","","","","","","1204","p","<div></div>"
"audio-keyboard-response","65","493953","0.0-10.0-0.25","p8jp","","","","","","null","null","audio_projekt/spulen1500spielen.wav"
"html-keyboard-response","66","494253","0.0-10.0-1.25","p8jp","","","","","","297","p","<div></div>"
"audio-keyboard-response","67","497541","0.0-10.0-0.26","p8jp","","","","","","null","null","audio_projekt/tuer1500tuer.wav"
"html-keyboard-response","68","497931","0.0-10.0-1.26","p8jp","","","","","","389","q","<div></div>"
"audio-keyboard-response","69","501902","0.0-10.0-0.27","p8jp","","","","","","null","null","audio_projekt/spuelen1500spulen.wav"
"html-keyboard-response","70","503060","0.0-10.0-1.27","p8jp","","","","","","1156","p","<div></div>"
"audio-keyboard-response","71","506429","0.0-10.0-0.28","p8jp","","","","","","null","null","audio_projekt/tour1500tour.wav"
"html-keyboard-response","72","507176","0.0-10.0-1.28","p8jp","","","","","","745","q","<div></div>"
"audio-keyboard-response","73","511368","0.0-10.0-0.29","p8jp","","","","","","null","null","audio_projekt/spielen1500spulen.wav"
"html-keyboard-response","74","513678","0.0-10.0-1.29","p8jp","","","","","","2309","p","<div></div>"
"audio-keyboard-response","75","517176","0.0-10.0-0.30","p8jp","","","","","","null","null","audio_projekt/kuehl1500kuehl.wav"
"html-keyboard-response","76","517664","0.0-10.0-1.30","p8jp","","","","","","487","q","<div></div>"
"audio-keyboard-response","77","521080","0.0-10.0-0.31","p8jp","","","","","","null","null","audio_projekt/biene1500buehne.wav"
"html-keyboard-response","78","521513","0.0-10.0-1.31","p8jp","","","","","","431","p","<div></div>"
"audio-keyboard-response","79","525679","0.0-10.0-0.32","p8jp","","","","","","null","null","audio_projekt/spielen1500spielen.wav"
"html-keyboard-response","80","526235","0.0-10.0-1.32","p8jp","","","","","","552","q","<div></div>"
"audio-keyboard-response","81","529913","0.0-10.0-0.33","p8jp","","","","","","null","null","audio_projekt/kuehl1500kiel.wav"
"html-keyboard-response","82","531174","0.0-10.0-1.33","p8jp","","","","","","1259","p","<div></div>"
"audio-keyboard-response","83","535355","0.0-10.0-0.34","p8jp","","","","","","null","null","audio_projekt/spulen1500spulen.wav"
"html-keyboard-response","84","536296","0.0-10.0-1.34","p8jp","","","","","","940","q","<div></div>"
"audio-keyboard-response","85","539932","0.0-10.0-0.35","p8jp","","","","","","null","null","audio_projekt/kiel1500kuehl.wav"
"html-keyboard-response","86","540520","0.0-10.0-1.35","p8jp","","","","","","586","p","<div></div>"
"audio-keyboard-response","87","544425","0.0-10.0-0.36","p8jp","","","","","","null","null","audio_projekt/segel1500siegel.wav"
"html-keyboard-response","88","544765","0.0-10.0-1.36","p8jp","","","","","","337","p","<div></div>"
"audio-keyboard-response","89","548024","0.0-10.0-0.37","p8jp","","","","","","null","null","audio_projekt/tour1500tier.wav"
"html-keyboard-response","90","548875","0.0-10.0-1.37","p8jp","","","","","","850","p","<div></div>"
"audio-keyboard-response","91","552456","0.0-10.0-0.38","p8jp","","","","","","null","null","audio_projekt/lieder1500leder.wav"
"html-keyboard-response","92","553150","0.0-10.0-1.38","p8jp","","","","","","693","p","<div></div>"
"audio-keyboard-response","93","557080","0.0-10.0-0.39","p8jp","","","","","","null","null","audio_projekt/stuhl1500stiel.wav"
"html-keyboard-response","94","557468","0.0-10.0-1.39","p8jp","","","","","","387","p","<div></div>"
"audio-keyboard-response","95","560968","0.0-10.0-0.40","p8jp","","","","","","null","null","audio_projekt/biene1500biene.wav"
"html-keyboard-response","96","561358","0.0-10.0-1.40","p8jp","","","","","","388","q","<div></div>"
"audio-keyboard-response","97","565289","0.0-10.0-0.41","p8jp","","","","","","null","null","audio_projekt/stiel1500stuhl.wav"
"html-keyboard-response","98","565792","0.0-10.0-1.41","p8jp","","","","","","501","p","<div></div>"
"audio-keyboard-response","99","569325","0.0-10.0-0.42","p8jp","","","","","","null","null","audio_projekt/kuehl1500kiel.wav"
"html-keyboard-response","100","569725","0.0-10.0-1.42","p8jp","","","","","","401","p","<div></div>"
"audio-keyboard-response","101","573113","0.0-10.0-0.43","p8jp","","","","","","null","null","audio_projekt/tier1500tour.wav"
"html-keyboard-response","102","574164","0.0-10.0-1.43","p8jp","","","","","","1051","p","<div></div>"
"audio-keyboard-response","103","577748","0.0-10.0-0.44","p8jp","","","","","","null","null","audio_projekt/leder1500leder.wav"
"html-keyboard-response","104","578192","0.0-10.0-1.44","p8jp","","","","","","442","q","<div></div>"
"audio-keyboard-response","105","582282","0.0-10.0-0.45","p8jp","","","","","","null","null","audio_projekt/spielen1500spulen.wav"
"html-keyboard-response","106","583031","0.0-10.0-1.45","p8jp","","","","","","748","p","<div></div>"
"audio-keyboard-response","107","586414","0.0-10.0-0.46","p8jp","","","","","","null","null","audio_projekt/biene1500biene.wav"
"html-keyboard-response","108","586853","0.0-10.0-1.46","p8jp","","","","","","437","q","<div></div>"
"audio-keyboard-response","109","590108","0.0-10.0-0.47","p8jp","","","","","","null","null","audio_projekt/tier1500tier.wav"
"html-keyboard-response","110","590609","0.0-10.0-1.47","p8jp","","","","","","499","q","<div></div>"
"audio-keyboard-response","111","594108","0.0-10.0-0.48","p8jp","","","","","","null","null","audio_projekt/buehne1500buehne.wav"
"html-keyboard-response","112","595059","0.0-10.0-1.48","p8jp","","","","","","950","q","<div></div>"
"audio-keyboard-response","113","598909","0.0-10.0-0.49","p8jp","","","","","","null","null","audio_projekt/stiel1500stuhl.wav"
"html-keyboard-response","114","599205","0.0-10.0-1.49","p8jp","","","","","","294","p","<div></div>"
"audio-keyboard-response","115","602770","0.0-10.0-0.50","p8jp","","","","","","null","null","audio_projekt/bluten1500blueten.wav"
"html-keyboard-response","116","603828","0.0-10.0-1.50","p8jp","","","","","","1056","p","<div></div>"
"audio-keyboard-response","117","607492","0.0-10.0-0.51","p8jp","","","","","","null","null","audio_projekt/lieder1500lieder.wav"
"html-keyboard-response","118","607930","0.0-10.0-1.51","p8jp","","","","","","435","q","<div></div>"
"audio-keyboard-response","119","611825","0.0-10.0-0.52","p8jp","","","","","","null","null","audio_projekt/stuhl1500stiel.wav"
"html-keyboard-response","120","612720","0.0-10.0-1.52","p8jp","","","","","","890","p","<div></div>"
"audio-keyboard-response","121","616595","0.0-10.0-0.53","p8jp","","","","","","null","null","audio_projekt/spuelen1500spulen.wav"
"html-keyboard-response","122","617503","0.0-10.0-1.53","p8jp","","","","","","906","p","<div></div>"
"audio-keyboard-response","123","620778","0.0-10.0-0.54","p8jp","","","","","","null","null","audio_projekt/tour1500tour.wav"
"html-keyboard-response","124","622866","0.0-10.0-1.54","p8jp","","","","","","2087","q","<div></div>"
"audio-keyboard-response","125","626960","0.0-10.0-0.55","p8jp","","","","","","null","null","audio_projekt/spulen1500spielen.wav"
"html-keyboard-response","126","627964","0.0-10.0-1.55","p8jp","","","","","","1001","p","<div></div>"
"audio-keyboard-response","127","631912","0.0-10.0-0.56","p8jp","","","","","","null","null","audio_projekt/stiel1500stiel.wav"
"html-keyboard-response","128","632793","0.0-10.0-1.56","p8jp","","","","","","879","q","<div></div>"
"audio-keyboard-response","129","636293","0.0-10.0-0.57","p8jp","","","","","","null","null","audio_projekt/kiel1500kuehl.wav"
"html-keyboard-response","130","636620","0.0-10.0-1.57","p8jp","","","","","","324","p","<div></div>"
"audio-keyboard-response","131","640637","0.0-10.0-0.58","p8jp","","","","","","null","null","audio_projekt/spielen1500spuelen.wav"
"html-keyboard-response","132","641082","0.0-10.0-1.58","p8jp","","","","","","440","p","<div></div>"
"audio-keyboard-response","133","644550","0.0-10.0-0.59","p8jp","","","","","","null","null","audio_projekt/bluten1500blueten.wav"
"html-keyboard-response","134","645280","0.0-10.0-1.59","p8jp","","","","","","728","p","<div></div>"
"audio-keyboard-response","135","649318","0.0-10.0-0.60","p8jp","","","","","","null","null","audio_projekt/spuelen1500spielen.wav"
"html-keyboard-response","136","649600","0.0-10.0-1.60","p8jp","","","","","","281","p","<div></div>"
"audio-keyboard-response","137","653422","0.0-10.0-0.61","p8jp","","","","","","null","null","audio_projekt/stuhl1500stuhl.wav"
"html-keyboard-response","138","653700","0.0-10.0-1.61","p8jp","","","","","","277","q","<div></div>"
"audio-keyboard-response","139","657732","0.0-10.0-0.62","p8jp","","","","","","null","null","audio_projekt/spielen1500spielen.wav"
"html-keyboard-response","140","658023","0.0-10.0-1.62","p8jp","","","","","","289","q","<div></div>"
"audio-keyboard-response","141","662043","0.0-10.0-0.63","p8jp","","","","","","null","null","audio_projekt/siegel1500segel.wav"
"html-keyboard-response","142","662756","0.0-10.0-1.63","p8jp","","","","","","711","p","<div></div>"
"audio-keyboard-response","143","666739","0.0-10.0-0.64","p8jp","","","","","","null","null","audio_projekt/spulen1500spuelen.wav"
"html-keyboard-response","144","668887","0.0-10.0-1.64","p8jp","","","","","","2148","p","<div></div>"
"audio-keyboard-response","145","672179","0.0-10.0-0.65","p8jp","","","","","","null","null","audio_projekt/tuer1500tour.wav"
"html-keyboard-response","146","673307","0.0-10.0-1.65","p8jp","","","","","","1126","p","<div></div>"
"audio-keyboard-response","147","677262","0.0-10.0-0.66","p8jp","","","","","","null","null","audio_projekt/spulen1500spuelen.wav"
"html-keyboard-response","148","678463","0.0-10.0-1.66","p8jp","","","","","","1200","p","<div></div>"
"audio-keyboard-response","149","682035","0.0-10.0-0.67","p8jp","","","","","","null","null","audio_projekt/blueten1500blueten.wav"
"html-keyboard-response","150","682782","0.0-10.0-1.67","p8jp","","","","","","747","q","<div></div>"
"audio-keyboard-response","151","686187","0.0-10.0-0.68","p8jp","","","","","","null","null","audio_projekt/tour1500tuer.wav"
"html-keyboard-response","152","687218","0.0-10.0-1.68","p8jp","","","","","","1030","p","<div></div>"
"audio-keyboard-response","153","691124","0.0-10.0-0.69","p8jp","","","","","","null","null","audio_projekt/siegel1500siegel.wav"
"html-keyboard-response","154","691557","0.0-10.0-1.69","p8jp","","","","","","431","q","<div></div>"
"audio-keyboard-response","155","695220","0.0-10.0-0.70","p8jp","","","","","","null","null","audio_projekt/leder1500lieder.wav"
"html-keyboard-response","156","697527","0.0-10.0-1.70","p8jp","","","","","","2305","p","<div></div>"
"audio-keyboard-response","157","700766","0.0-10.0-0.71","p8jp","","","","","","null","null","audio_projekt/tour1500tuer.wav"
"html-keyboard-response","158","702355","0.0-10.0-1.71","p8jp","","","","","","1588","p","<div></div>"
"audio-keyboard-response","159","706171","0.0-10.0-0.72","p8jp","","","","","","null","null","audio_projekt/stiel1500stiel.wav"
"html-keyboard-response","160","708355","0.0-10.0-1.72","p8jp","","","","","","2180","q","<div></div>"
"audio-keyboard-response","161","711758","0.0-10.0-0.73","p8jp","","","","","","null","null","audio_projekt/buehne1500buehne.wav"
"html-keyboard-response","162","713495","0.0-10.0-1.73","p8jp","","","","","","1735","q","<div></div>"
"audio-keyboard-response","163","717071","0.0-10.0-0.74","p8jp","","","","","","null","null","audio_projekt/leder1500lieder.wav"
"html-keyboard-response","164","717581","0.0-10.0-1.74","p8jp","","","","","","509","p","<div></div>"
"audio-keyboard-response","165","721129","0.0-10.0-0.75","p8jp","","","","","","null","null","audio_projekt/lieder1500lieder.wav"
"html-keyboard-response","166","721653","0.0-10.0-1.75","p8jp","","","","","","519","q","<div></div>"
"audio-keyboard-response","167","724939","0.0-10.0-0.76","p8jp","","","","","","null","null","audio_projekt/tier1500tour.wav"
"html-keyboard-response","168","725430","0.0-10.0-1.76","p8jp","","","","","","486","p","<div></div>"
"audio-keyboard-response","169","728892","0.0-10.0-0.77","p8jp","","","","","","null","null","audio_projekt/bluten1500bluten.wav"
"html-keyboard-response","170","729376","0.0-10.0-1.77","p8jp","","","","","","482","q","<div></div>"
"audio-keyboard-response","171","733457","0.0-10.0-0.78","p8jp","","","","","","null","null","audio_projekt/spulen1500spulen.wav"
"html-keyboard-response","172","733693","0.0-10.0-1.78","p8jp","","","","","","232","q","<div></div>"
"audio-keyboard-response","173","737170","0.0-10.0-0.79","p8jp","","","","","","null","null","audio_projekt/blueten1500blueten.wav"
"html-keyboard-response","174","737977","0.0-10.0-1.79","p8jp","","","","","","805","q","<div></div>"
"html-keyboard-response","175","753070","0.0-11.0","p8jp","","","","","","14289","q","<h2>Pause</h2><div class=""myDiv""><p>Gut gemacht! Jetzt k&ouml;nnen Sie eine kleine Pause machen.</p></div><div><img src=""pics/coffee.png"" title=""Machen Sie eine Pause..."" width=""150"" height=""150"" class=""center""></div><div style=""height:20px; width:100%""></div><p>Wenn Sie bereit sind, dr&uuml;cken Sie eine beliebige Taste, um fortzufahren.</p>"
"html-keyboard-response","176","763191","0.0-12.0","p8jp","","","","","","10120","control","<h2>Teil 2: Identifikationsaufgabe: Vorbereitung 1</h2><div class=""myDiv""><p>In diesem Teil des Experimentes werden Sie nur ein Wort h&ouml;ren. </p><p>Anschlie&szlig;end werden zwei Bilder gezeigt. W&auml;hlen Sie das Bild aus, das das Wort darstellt.</p><p>Bevor die Aufgabe beginnt, werden die Bilder mit den entsprechenden W&ouml;rtern angezeigt. Sie werden jedes Bild zweimal sehen.</p><p>Dr&uuml;cken Sie bitte eine beliebige Taste, um die Bilder zu sehen.</p>"
"audio-button-response","177","776159","0.0-13.0-0.0-0.0","p8jp","","","","","","12871","0","audio_projekt/blueten.wav"
"audio-button-response","178","780132","0.0-13.0-0.0-0.1","p8jp","","","","","","3868","0","audio_projekt/beten1.wav"
"audio-button-response","179","783211","0.0-13.0-0.0-0.2","p8jp","","","","","","3003","0","audio_projekt/tuer.wav"
"audio-button-response","180","788218","0.0-13.0-0.0-0.3","p8jp","","","","","","4918","0","audio_projekt/bluten.wav"
"audio-button-response","181","791281","0.0-13.0-0.0-0.4","p8jp","","","","","","2925","0","audio_projekt/buehne.wav"
"audio-button-response","182","794223","0.0-13.0-0.0-0.5","p8jp","","","","","","2848","0","audio_projekt/leder.wav"
"audio-button-response","183","796957","0.0-13.0-0.0-0.6","p8jp","","","","","","2644","0","audio_projekt/bieten1.wav"
"audio-button-response","184","799317","0.0-13.0-0.0-0.7","p8jp","","","","","","2272","0","audio_projekt/spulen.wav"
"audio-button-response","185","801188","0.0-13.0-0.0-0.8","p8jp","","","","","","1781","0","audio_projekt/biene.wav"
"audio-button-response","186","803113","0.0-13.0-0.0-0.9","p8jp","","","","","","1836","0","audio_projekt/segel.wav"
"audio-button-response","187","805789","0.0-13.0-0.0-0.10","p8jp","","","","","","2588","0","audio_projekt/stuhl.wav"
"audio-button-response","188","808508","0.0-13.0-0.0-0.11","p8jp","","","","","","2644","0","audio_projekt/tier.wav"
"audio-button-response","189","810566","0.0-13.0-0.0-0.12","p8jp","","","","","","1975","0","audio_projekt/treffen2.wav"
"audio-button-response","190","813652","0.0-13.0-0.0-0.13","p8jp","","","","","","2999","0","audio_projekt/stiel.wav"
"audio-button-response","191","817869","0.0-13.0-0.0-0.14","p8jp","","","","","","4078","0","audio_projekt/siegel.wav"
"audio-button-response","192","820760","0.0-13.0-0.0-0.15","p8jp","","","","","","2818","0","audio_projekt/tour.wav"
"audio-button-response","193","823021","0.0-13.0-0.0-0.16","p8jp","","","","","","2160","0","audio_projekt/lieder.wav"
"audio-button-response","194","827031","0.0-13.0-0.0-0.17","p8jp","","","","","","3913","0","audio_projekt/spuelen2.wav"
"audio-button-response","195","828975","0.0-13.0-0.0-0.18","p8jp","","","","","","1852","0","audio_projekt/kiel.wav"
"audio-button-response","196","831014","0.0-13.0-0.0-0.19","p8jp","","","","","","1945","0","audio_projekt/kuehl.wav"
"audio-button-response","197","832743","0.0-13.0-0.0-0.20","p8jp","","","","","","1645","0","audio_projekt/spielen2.wav"
"audio-button-response","198","834643","0.0-13.0-0.0-0.21","p8jp","","","","","","1806","0","audio_projekt/triefen1.wav"
"audio-button-response","199","838352","0.0-13.0-0.1-0.22","p8jp","","","","","","3705","0","audio_projekt/blueten.wav"
"audio-button-response","200","843611","0.0-13.0-0.1-0.23","p8jp","","","","","","5256","0","audio_projekt/beten1.wav"
"audio-button-response","201","845935","0.0-13.0-0.1-0.24","p8jp","","","","","","2321","0","audio_projekt/tuer.wav"
"audio-button-response","202","847702","0.0-13.0-0.1-0.25","p8jp","","","","","","1763","0","audio_projekt/bluten.wav"
"audio-button-response","203","849157","0.0-13.0-0.1-0.26","p8jp","","","","","","1453","0","audio_projekt/buehne.wav"
"audio-button-response","204","850585","0.0-13.0-0.1-0.27","p8jp","","","","","","1424","0","audio_projekt/leder.wav"
"audio-button-response","205","852199","0.0-13.0-0.1-0.28","p8jp","","","","","","1612","0","audio_projekt/bieten1.wav"
"audio-button-response","206","853986","0.0-13.0-0.1-0.29","p8jp","","","","","","1784","0","audio_projekt/spulen.wav"
"audio-button-response","207","855435","0.0-13.0-0.1-0.30","p8jp","","","","","","1446","0","audio_projekt/biene.wav"
"audio-button-response","208","858046","0.0-13.0-0.1-0.31","p8jp","","","","","","2608","0","audio_projekt/segel.wav"
"audio-button-response","209","862172","0.0-13.0-0.1-0.32","p8jp","","","","","","4122","0","audio_projekt/stuhl.wav"
"audio-button-response","210","880502","0.0-13.0-0.1-0.33","p8jp","","","","","","18328","0","audio_projekt/tier.wav"
"audio-button-response","211","883502","0.0-13.0-0.1-0.34","p8jp","","","","","","2997","0","audio_projekt/treffen2.wav"
"audio-button-response","212","885546","0.0-13.0-0.1-0.35","p8jp","","","","","","2042","0","audio_projekt/stiel.wav"
"audio-button-response","213","887950","0.0-13.0-0.1-0.36","p8jp","","","","","","2403","0","audio_projekt/siegel.wav"
"audio-button-response","214","889636","0.0-13.0-0.1-0.37","p8jp","","","","","","1682","0","audio_projekt/tour.wav"
"audio-button-response","215","891114","0.0-13.0-0.1-0.38","p8jp","","","","","","1475","0","audio_projekt/lieder.wav"
"audio-button-response","216","893123","0.0-13.0-0.1-0.39","p8jp","","","","","","2006","0","audio_projekt/spuelen2.wav"
"audio-button-response","217","894521","0.0-13.0-0.1-0.40","p8jp","","","","","","1395","0","audio_projekt/kiel.wav"
"audio-button-response","218","896223","0.0-13.0-0.1-0.41","p8jp","","","","","","1698","0","audio_projekt/kuehl.wav"
"audio-button-response","219","897502","0.0-13.0-0.1-0.42","p8jp","","","","","","1274","0","audio_projekt/spielen2.wav"
"audio-button-response","220","899128","0.0-13.0-0.1-0.43","p8jp","","","","","","1618","0","audio_projekt/triefen1.wav"
"html-keyboard-response","221","905063","0.0-14.0","p8jp","","","","","","5933","control","<h2>Teil 2: Identifikationsaufgabe: Vorbereitung 2</h2><div class=""myDiv""><p>Jetzt können Sie einen kurzen Probedurchlauf f&uuml;r diesen Teil des Experiments machen.</p><p>W&auml;hlen Sie das Bild aus, das das Wort darstellt. <ul><li>Dr&uuml;cken Sie die <b>Taste Q</b>, um das <b>linke</b> Bild auszuw&auml;hlen. Dr&uuml;cken Sie die <b>Taste P</b>, um das <b>rechte</b> Bild auszuw&auml;hlen.</li> <li>Sie haben 5 Sekunden Zeit, um sich f&uuml;r eines der Bilder zu entscheiden. </li><li>Bitte warten Sie, bis Sie <b>das ganze Wort gehört haben</b>, bevor Sie eine Taste drücken.</li></ul></p><p>Dr&uuml;cken Sie eine beliebige Taste, um den Probedurchlauf anzufangen.</p>"
"audio-keyboard-response","222","905830","0.0-15.0-0.0","p8jp","","","","","","null","null","audio_projekt/treffen2.wav"
"image-keyboard-response","223","910301","0.0-15.0-1.0","p8jp","","","","","","4463","p","pics/scaled/triefen_treffen.png"
"audio-keyboard-response","224","911719","0.0-15.0-0.1","p8jp","","","","","","null","null","audio_projekt/beten1.wav"
"image-keyboard-response","225","915048","0.0-15.0-1.1","p8jp","","","","","","3325","p","pics/scaled/bieten_beten.jpg"
"html-keyboard-response","226","921788","0.0-16.0","p8jp","","","","","","5933","p","<h2>Teil 2: Identifikationsaufgabe</h2><p>Jetzt sind Sie darauf vorbereitet, die Identifikationsaufgabe auszuführen.</p><p>Sind Sie bereit? Dann dr&uuml;cken Sie eine beliebige Taste, um anzufangen.</p>"
"audio-keyboard-response","227","922484","0.0-17.0-0.0","p8jp","","","","","","null","null","audio_projekt/bluten.wav"
"image-keyboard-response","228","927127","0.0-17.0-1.0","p8jp","","","","","","4640","p","pics/scaled/bluten_blueten.jpg"
"audio-keyboard-response","229","928643","0.0-17.0-0.1","p8jp","","","","","","null","null","audio_projekt/lieder.wav"
"image-keyboard-response","230","930127","0.0-17.0-1.1","p8jp","","","","","","1482","p","pics/scaled/lieder_leder.jpg"
"audio-keyboard-response","231","931463","0.0-17.0-0.2","p8jp","","","","","","null","null","audio_projekt/tour.wav"
"image-keyboard-response","232","933925","0.0-17.0-1.2","p8jp","","","","","","2458","p","pics/scaled/tier_tour.jpg"
"audio-keyboard-response","233","935244","0.0-17.0-0.3","p8jp","","","","","","null","null","audio_projekt/tier.wav"
"image-keyboard-response","234","935654","0.0-17.0-1.3","p8jp","","","","","","408","q","pics/scaled/tier_tour.jpg"
"audio-keyboard-response","235","937122","0.0-17.0-0.4","p8jp","","","","","","null","null","audio_projekt/kiel.wav"
"image-keyboard-response","236","937998","0.0-17.0-1.4","p8jp","","","","","","875","q","pics/scaled/kiel_kuehl.jpg"
"audio-keyboard-response","237","939488","0.0-17.0-0.5","p8jp","","","","","","null","null","audio_projekt/leder.wav"
"image-keyboard-response","238","939789","0.0-17.0-1.5","p8jp","","","","","","299","q","pics/scaled/lieder_leder.jpg"
"audio-keyboard-response","239","941516","0.0-17.0-0.6","p8jp","","","","","","null","null","audio_projekt/spuelen2.wav"
"image-keyboard-response","240","942938","0.0-17.0-1.6","p8jp","","","","","","1420","q","pics/scaled/spulen_spuelen.jpg"
"audio-keyboard-response","241","944282","0.0-17.0-0.7","p8jp","","","","","","null","null","audio_projekt/tuer.wav"
"image-keyboard-response","242","945645","0.0-17.0-1.7","p8jp","","","","","","1360","p","pics/scaled/tuer_tour.jpg"
"audio-keyboard-response","243","947063","0.0-17.0-0.8","p8jp","","","","","","null","null","audio_projekt/blueten.wav"
"image-keyboard-response","244","948487","0.0-17.0-1.8","p8jp","","","","","","1422","q","pics/scaled/bluten_blueten.jpg"
"audio-keyboard-response","245","949897","0.0-17.0-0.9","p8jp","","","","","","null","null","audio_projekt/tour.wav"
"image-keyboard-response","246","954566","0.0-17.0-1.9","p8jp","","","","","","4667","q","pics/scaled/tuer_tour.jpg"
"audio-keyboard-response","247","956318","0.0-17.0-0.10","p8jp","","","","","","null","null","audio_projekt/spulen.wav"
"image-keyboard-response","248","959045","0.0-17.0-1.10","p8jp","","","","","","2725","q","pics/scaled/spulen_spuelen.jpg"
"audio-keyboard-response","249","960484","0.0-17.0-0.11","p8jp","","","","","","null","null","audio_projekt/blueten.wav"
"image-keyboard-response","250","961753","0.0-17.0-1.11","p8jp","","","","","","1267","q","pics/scaled/bluten_blueten.jpg"
"audio-keyboard-response","251","963094","0.0-17.0-0.12","p8jp","","","","","","null","null","audio_projekt/tour.wav"
"image-keyboard-response","252","965154","0.0-17.0-1.12","p8jp","","","","","","2058","q","pics/scaled/tuer_tour.jpg"
"audio-keyboard-response","253","966819","0.0-17.0-0.13","p8jp","","","","","","null","null","audio_projekt/siegel.wav"
"image-keyboard-response","254","968462","0.0-17.0-1.13","p8jp","","","","","","1639","p","pics/scaled/siegel_segel.jpg"
"audio-keyboard-response","255","970188","0.0-17.0-0.14","p8jp","","","","","","null","null","audio_projekt/spuelen2.wav"
"image-keyboard-response","256","972517","0.0-17.0-1.14","p8jp","","","","","","2324","p","pics/scaled/spielen_spuelen.jpg"
"audio-keyboard-response","257","974297","0.0-17.0-0.15","p8jp","","","","","","null","null","audio_projekt/spulen.wav"
"image-keyboard-response","258","975467","0.0-17.0-1.15","p8jp","","","","","","1170","q","pics/scaled/spielen_spulen.jpg"
"audio-keyboard-response","259","977332","0.0-17.0-0.16","p8jp","","","","","","null","null","audio_projekt/spielen.wav"
"image-keyboard-response","260","978228","0.0-17.0-1.16","p8jp","","","","","","894","q","pics/scaled/spielen_spuelen.jpg"
"audio-keyboard-response","261","979624","0.0-17.0-0.17","p8jp","","","","","","null","null","audio_projekt/buehne.wav"
"image-keyboard-response","262","980446","0.0-17.0-1.17","p8jp","","","","","","821","p","pics/scaled/biene_buehne.png"
"audio-keyboard-response","263","982166","0.0-17.0-0.18","p8jp","","","","","","null","null","audio_projekt/spuelen2.wav"
"image-keyboard-response","264","982524","0.0-17.0-1.18","p8jp","","","","","","356","p","pics/scaled/spulen_spuelen.jpg"
"audio-keyboard-response","265","984260","0.0-17.0-0.19","p8jp","","","","","","null","null","audio_projekt/spielen2.wav"
"image-keyboard-response","266","984676","0.0-17.0-1.19","p8jp","","","","","","411","p","pics/scaled/spielen_spulen.jpg"
"audio-keyboard-response","267","986218","0.0-17.0-0.20","p8jp","","","","","","null","null","audio_projekt/leder.wav"
"image-keyboard-response","268","986591","0.0-17.0-1.20","p8jp","","","","","","372","q","pics/scaled/lieder_leder.jpg"
"audio-keyboard-response","269","988296","0.0-17.0-0.21","p8jp","","","","","","null","null","audio_projekt/spuelen2.wav"
"image-keyboard-response","270","993315","0.0-17.0-1.21","p8jp","","","","","","null","null","pics/scaled/spulen_spuelen.jpg"
"audio-keyboard-response","271","994742","0.0-17.0-0.22","p8jp","","","","","","null","null","audio_projekt/buehne.wav"
"image-keyboard-response","272","995886","0.0-17.0-1.22","p8jp","","","","","","1143","p","pics/scaled/biene_buehne.png"
"audio-keyboard-response","273","997407","0.0-17.0-0.23","p8jp","","","","","","null","null","audio_projekt/kiel.wav"
"image-keyboard-response","274","997999","0.0-17.0-1.23","p8jp","","","","","","591","q","pics/scaled/kiel_kuehl.jpg"
"audio-keyboard-response","275","999693","0.0-17.0-0.24","p8jp","","","","","","null","null","audio_projekt/stuhl.wav"
"image-keyboard-response","276","1000239","0.0-17.0-1.24","p8jp","","","","","","545","p","pics/scaled/stiel2_stuhl.jpg"
"audio-keyboard-response","277","1001609","0.0-17.0-0.25","p8jp","","","","","","null","null","audio_projekt/biene.wav"
"image-keyboard-response","278","1001921","0.0-17.0-1.25","p8jp","","","","","","310","q","pics/scaled/biene_buehne.png"
"audio-keyboard-response","279","1003307","0.0-17.0-0.26","p8jp","","","","","","null","null","audio_projekt/buehne.wav"
"image-keyboard-response","280","1003484","0.0-17.0-1.26","p8jp","","","","","","176","p","pics/scaled/biene_buehne.png"
"audio-keyboard-response","281","1004927","0.0-17.0-0.27","p8jp","","","","","","null","null","audio_projekt/kuehl.wav"
"image-keyboard-response","282","1005243","0.0-17.0-1.27","p8jp","","","","","","314","p","pics/scaled/kiel_kuehl.jpg"
"audio-keyboard-response","283","1006706","0.0-17.0-0.28","p8jp","","","","","","null","null","audio_projekt/lieder.wav"
"image-keyboard-response","284","1006890","0.0-17.0-1.28","p8jp","","","","","","182","p","pics/scaled/lieder_leder.jpg"
"audio-keyboard-response","285","1008377","0.0-17.0-0.29","p8jp","","","","","","null","null","audio_projekt/leder.wav"
"image-keyboard-response","286","1008400","0.0-17.0-1.29","p8jp","","","","","","22","q","pics/scaled/lieder_leder.jpg"
"audio-keyboard-response","287","1010063","0.0-17.0-0.30","p8jp","","","","","","null","null","audio_projekt/segel.wav"
"image-keyboard-response","288","1010650","0.0-17.0-1.30","p8jp","","","","","","581","q","pics/scaled/siegel_segel.jpg"
"audio-keyboard-response","289","1012034","0.0-17.0-0.31","p8jp","","","","","","null","null","audio_projekt/biene.wav"
"image-keyboard-response","290","1012202","0.0-17.0-1.31","p8jp","","","","","","166","q","pics/scaled/biene_buehne.png"
"audio-keyboard-response","291","1013861","0.0-17.0-0.32","p8jp","","","","","","null","null","audio_projekt/siegel.wav"
"image-keyboard-response","292","1013882","0.0-17.0-1.32","p8jp","","","","","","17","p","pics/scaled/siegel_segel.jpg"
"audio-keyboard-response","293","1015623","0.0-17.0-0.33","p8jp","","","","","","null","null","audio_projekt/spulen.wav"
"image-keyboard-response","294","1016955","0.0-17.0-1.33","p8jp","","","","","","1326","q","pics/scaled/spielen_spulen.jpg"
"audio-keyboard-response","295","1018404","0.0-17.0-0.34","p8jp","","","","","","null","null","audio_projekt/kiel.wav"
"image-keyboard-response","296","1018628","0.0-17.0-1.34","p8jp","","","","","","221","q","pics/scaled/kiel_kuehl.jpg"
"audio-keyboard-response","297","1020020","0.0-17.0-0.35","p8jp","","","","","","null","null","audio_projekt/biene.wav"
"image-keyboard-response","298","1020295","0.0-17.0-1.35","p8jp","","","","","","272","q","pics/scaled/biene_buehne.png"
"audio-keyboard-response","299","1021736","0.0-17.0-0.36","p8jp","","","","","","null","null","audio_projekt/kuehl.wav"
"image-keyboard-response","300","1021841","0.0-17.0-1.36","p8jp","","","","","","103","p","pics/scaled/kiel_kuehl.jpg"
"audio-keyboard-response","301","1023316","0.0-17.0-0.37","p8jp","","","","","","null","null","audio_projekt/lieder.wav"
"image-keyboard-response","302","1023524","0.0-17.0-1.37","p8jp","","","","","","207","p","pics/scaled/lieder_leder.jpg"
"audio-keyboard-response","303","1025124","0.0-17.0-0.38","p8jp","","","","","","null","null","audio_projekt/stuhl.wav"
"image-keyboard-response","304","1025190","0.0-17.0-1.38","p8jp","","","","","","64","p","pics/scaled/stiel2_stuhl.jpg"
"audio-keyboard-response","305","1026638","0.0-17.0-0.39","p8jp","","","","","","null","null","audio_projekt/kuehl.wav"
"image-keyboard-response","306","1026934","0.0-17.0-1.39","p8jp","","","","","","295","p","pics/scaled/kiel_kuehl.jpg"
"audio-keyboard-response","307","1028663","0.0-17.0-0.40","p8jp","","","","","","null","null","audio_projekt/spuelen2.wav"
"image-keyboard-response","308","1030540","0.0-17.0-1.40","p8jp","","","","","","1872","p","pics/scaled/spielen_spuelen.jpg"
"audio-keyboard-response","309","1031886","0.0-17.0-0.41","p8jp","","","","","","null","null","audio_projekt/tuer.wav"
"image-keyboard-response","310","1033035","0.0-17.0-1.41","p8jp","","","","","","1147","p","pics/scaled/tuer_tour.jpg"
"audio-keyboard-response","311","1034347","0.0-17.0-0.42","p8jp","","","","","","null","null","audio_projekt/tour.wav"
"image-keyboard-response","312","1035058","0.0-17.0-1.42","p8jp","","","","","","709","q","pics/scaled/tuer_tour.jpg"
"audio-keyboard-response","313","1036779","0.0-17.0-0.43","p8jp","","","","","","null","null","audio_projekt/spuelen2.wav"
"image-keyboard-response","314","1038035","0.0-17.0-1.43","p8jp","","","","","","1254","p","pics/scaled/spielen_spuelen.jpg"
"audio-keyboard-response","315","1039764","0.0-17.0-0.44","p8jp","","","","","","null","null","audio_projekt/spulen.wav"
"image-keyboard-response","316","1040000","0.0-17.0-1.44","p8jp","","","","","","232","q","pics/scaled/spulen_spuelen.jpg"
"audio-keyboard-response","317","1041331","0.0-17.0-0.45","p8jp","","","","","","null","null","audio_projekt/tier.wav"
"image-keyboard-response","318","1041611","0.0-17.0-1.45","p8jp","","","","","","277","q","pics/scaled/tier_tour.jpg"
"audio-keyboard-response","319","1042939","0.0-17.0-0.46","p8jp","","","","","","null","null","audio_projekt/tour.wav"
"image-keyboard-response","320","1043835","0.0-17.0-1.46","p8jp","","","","","","894","p","pics/scaled/tier_tour.jpg"
"audio-keyboard-response","321","1045638","0.0-17.0-0.47","p8jp","","","","","","null","null","audio_projekt/spulen.wav"
"image-keyboard-response","322","1046229","0.0-17.0-1.47","p8jp","","","","","","590","q","pics/scaled/spielen_spulen.jpg"
"audio-keyboard-response","323","1047823","0.0-17.0-0.48","p8jp","","","","","","null","null","audio_projekt/stiel.wav"
"image-keyboard-response","324","1048571","0.0-17.0-1.48","p8jp","","","","","","746","q","pics/scaled/stiel2_stuhl.jpg"
"audio-keyboard-response","325","1050309","0.0-17.0-0.49","p8jp","","","","","","null","null","audio_projekt/spielen.wav"
"image-keyboard-response","326","1050857","0.0-17.0-1.49","p8jp","","","","","","545","q","pics/scaled/spielen_spuelen.jpg"
"audio-keyboard-response","327","1052662","0.0-17.0-0.50","p8jp","","","","","","null","null","audio_projekt/spulen.wav"
"image-keyboard-response","328","1054102","0.0-17.0-1.50","p8jp","","","","","","1438","q","pics/scaled/spulen_spuelen.jpg"
"audio-keyboard-response","329","1055858","0.0-17.0-0.51","p8jp","","","","","","null","null","audio_projekt/spielen2.wav"
"image-keyboard-response","330","1056095","0.0-17.0-1.51","p8jp","","","","","","235","p","pics/scaled/spielen_spulen.jpg"
"audio-keyboard-response","331","1057740","0.0-17.0-0.52","p8jp","","","","","","null","null","audio_projekt/stuhl.wav"
"image-keyboard-response","332","1057965","0.0-17.0-1.52","p8jp","","","","","","225","p","pics/scaled/stiel2_stuhl.jpg"
"audio-keyboard-response","333","1059387","0.0-17.0-0.53","p8jp","","","","","","null","null","audio_projekt/bluten.wav"
"image-keyboard-response","334","1062443","0.0-17.0-1.53","p8jp","","","","","","3055","p","pics/scaled/bluten_blueten.jpg"
"audio-keyboard-response","335","1064183","0.0-17.0-0.54","p8jp","","","","","","null","null","audio_projekt/spielen2.wav"
"image-keyboard-response","336","1064248","0.0-17.0-1.54","p8jp","","","","","","65","p","pics/scaled/spielen_spulen.jpg"
"audio-keyboard-response","337","1065674","0.0-17.0-0.55","p8jp","","","","","","null","null","audio_projekt/bluten.wav"
"image-keyboard-response","338","1067396","0.0-17.0-1.55","p8jp","","","","","","1717","p","pics/scaled/bluten_blueten.jpg"
"audio-keyboard-response","339","1068909","0.0-17.0-0.56","p8jp","","","","","","null","null","audio_projekt/blueten.wav"
"image-keyboard-response","340","1069069","0.0-17.0-1.56","p8jp","","","","","","159","q","pics/scaled/bluten_blueten.jpg"
"audio-keyboard-response","341","1070665","0.0-17.0-0.57","p8jp","","","","","","null","null","audio_projekt/stiel.wav"
"image-keyboard-response","342","1072166","0.0-17.0-1.57","p8jp","","","","","","1498","q","pics/scaled/stiel2_stuhl.jpg"
"audio-keyboard-response","343","1073893","0.0-17.0-0.58","p8jp","","","","","","null","null","audio_projekt/spielen.wav"
"image-keyboard-response","344","1074129","0.0-17.0-1.58","p8jp","","","","","","236","q","pics/scaled/spielen_spuelen.jpg"
"audio-keyboard-response","345","1075747","0.0-17.0-0.59","p8jp","","","","","","null","null","audio_projekt/stiel.wav"
"image-keyboard-response","346","1076165","0.0-17.0-1.59","p8jp","","","","","","416","q","pics/scaled/stiel2_stuhl.jpg"
"audio-keyboard-response","347","1077483","0.0-17.0-0.60","p8jp","","","","","","null","null","audio_projekt/tour.wav"
"image-keyboard-response","348","1077826","0.0-17.0-1.60","p8jp","","","","","","340","p","pics/scaled/tier_tour.jpg"
"audio-keyboard-response","349","1079497","0.0-17.0-0.61","p8jp","","","","","","null","null","audio_projekt/segel.wav"
"image-keyboard-response","350","1079781","0.0-17.0-1.61","p8jp","","","","","","282","q","pics/scaled/siegel_segel.jpg"
"audio-keyboard-response","351","1081507","0.0-17.0-0.62","p8jp","","","","","","null","null","audio_projekt/segel.wav"
"image-keyboard-response","352","1083201","0.0-17.0-1.62","p8jp","","","","","","1691","q","pics/scaled/siegel_segel.jpg"
"audio-keyboard-response","353","1084537","0.0-17.0-0.63","p8jp","","","","","","null","null","audio_projekt/tier.wav"
"image-keyboard-response","354","1084765","0.0-17.0-1.63","p8jp","","","","","","226","q","pics/scaled/tier_tour.jpg"
"audio-keyboard-response","355","1086096","0.0-17.0-0.64","p8jp","","","","","","null","null","audio_projekt/tuer.wav"
"image-keyboard-response","356","1086954","0.0-17.0-1.64","p8jp","","","","","","856","p","pics/scaled/tuer_tour.jpg"
"audio-keyboard-response","357","1088682","0.0-17.0-0.65","p8jp","","","","","","null","null","audio_projekt/siegel.wav"
"image-keyboard-response","358","1088760","0.0-17.0-1.65","p8jp","","","","","","76","p","pics/scaled/siegel_segel.jpg"
