"trial_type","trial_index","time_elapsed","internal_node_id","subject","success","timeout","failed_images","failed_audio","failed_video","rt","response","stimulus"
"pavlovia","0","735","0.0-0.0","vp8z","","","","","","","",""
"preload","1","736","0.0-1.0","vp8z","true","false","[]","[]","[]","","",""
"survey-html-form","2","5129","0.0-2.0","vp8z","","","","","","4393","{""code"":""60745654775360c343322bd9""}",""
"html-button-response","3","17829","0.0-3.0","vp8z","","","","","","12696","0","<h2>Willkommen zum Experiment!</h2><div class=""myDiv""><p>Vielen Dank f&uuml;r Ihr Interesse an dieser Studie. Wir bitten Sie <strong>Kopfh&ouml;rer</strong> daf&uuml;r zu verwenden.</p></div><div><img src=""pics/headphones.png"" title=""Earbuds are also fine"" width=""250"" height=""200"" class=""center""></div><div class=""myDiv""><p>Das Experiment besteht aus zwei Teilen:</p> <ol> <li>Eine <strong>Unterscheidungsaufgabe,</strong> in der Sie zwei W&ouml;rter h&ouml;ren. Im Anschluss sollen Sie feststellen, ob diese W&ouml;rter gleich oder unterschiedlich sind;</li><li>Eine <strong>Identifikationsaufgabe,</strong> in der Sie nur ein Wort h&ouml;ren, wobei Ihnen aber zwei Bilder gezeigt werden. Ihre Aufgabe ist es, dasjenige Bild auszuw&auml;hlen, das das geh&ouml;rte Wort darstellt.</li> </ol><p>Wir bitten Sie um Ihre Zustimmung, bevor wir Ihre Daten sammeln und verwenden. Bitte klicken Sie auf den ""Start""-Button, um Ihre Zustimmung zu geben. Anschlie&szlig;end werden wir ein paar Fragen zu Ihren Sprachkenntnissen stellen. Danach k&ouml;nnen Sie das Experiment starten. </p></div>"
"survey-html-form","4","27048","0.0-4.0","vp8z","","","","","","9216","{""zustimmung"":""on""}",""
"survey-html-form","5","90881","0.0-5.0","vp8z","","","","","","63803","{""native"":""Englisch"",""AOL"":""12"",""LearnType1"":""classeshome"",""LearnType4"":""uni"",""LearnType6"":""immersion"",""which"":""Deutschkurs in meinem Heimatland (in der Schule/an der Uni)"",""AOA"":""20"",""timespent"":""1 Jahr""}",""
"audio-button-response","6","97832","0.0-6.0-0.0","vp8z","","","","","","6768","0","audio_projekt/treffen1.wav"
"audio-button-response","7","100362","0.0-6.1-0.1","vp8z","","","","","","2528","0","audio_projekt/treffen1.wav"
"audio-button-response","8","101990","0.0-6.2-0.2","vp8z","","","","","","1626","1","audio_projekt/treffen1.wav"
"html-keyboard-response","9","109789","0.0-7.0","vp8z","","","","","","7796","arrowdown","<h2>Teil 1: Unterscheidungsaufgabe</h2><div class=""myDiv""><p>In diesem Teil des Experimentes werden Sie im Abstand von 1.5 Sekunden <b>zwei W&ouml;rter</b> h&ouml;ren.</p><ul><li>Ihre Aufgabe ist es, festzustellen, ob diese W&ouml;rter <b>gleich oder unterschiedlich</b> sind. Wenn es einen Unterschied gibt, besteht dieser nur aus einem Vokal. </li> <li>Dr&uuml;cken Sie die <b>Taste Q</b>, wenn die W&ouml;rter gleich sind. Dr&uuml;cken Sie die <b>Taste P</b>, wenn die W&ouml;rter unterschiedlich sind.</li><li>Bitte warten Sie, bis Sie <b>beide Wörter gehört haben</b>, bevor Sie eine Taste drücken. Aber Achtung: Sie haben nur <b>5 Sekunden</b>, um eine Option auszuw&auml;hlen! &Uuml;berlegen Sie daher bitte nicht zu lange.</li></ul><br><p>Dr&uuml;cken Sie eine beliebige Taste, um ein paar Testversuche zu machen.</p></ul></div>"
"audio-keyboard-response","10","113901","0.0-8.0-0.0","vp8z","","","","","","null","null","audio_projekt/treffen1500triefen.wav"
"html-keyboard-response","11","115275","0.0-8.0-1.0","vp8z","","","","","","1373","p","<div></div>"
"audio-keyboard-response","12","119626","0.0-8.0-0.1","vp8z","","","","","","null","null","audio_projekt/treffen1500treffen.wav"
"html-keyboard-response","13","120442","0.0-8.0-1.1","vp8z","","","","","","813","q","<div></div>"
"html-keyboard-response","14","128984","0.0-9.0","vp8z","","","","","","7343","arrowdown","<p>Gut! Jetzt f&auml;ngt der erste Teil des Experiments an. Dieser Teil dauert ca. 10 Minuten.</p><br><p>Bitte dr&uuml;cken Sie eine beliebige Taste, um fortzufahren.<div style=""height:30px; width:100%""></div>"
"audio-keyboard-response","15","136408","0.0-10.0-0.0","vp8z","","","","","","null","null","audio_projekt/blueten1500bluten.wav"
"html-keyboard-response","16","138184","0.0-10.0-1.0","vp8z","","","","","","1775","p","<div></div>"
"audio-keyboard-response","17","145307","0.0-10.0-0.1","vp8z","","","","","","null","null","audio_projekt/spuelen1500spielen.wav"
"html-keyboard-response","18","146055","0.0-10.0-1.1","vp8z","","","","","","747","p","<div></div>"
"audio-keyboard-response","19","150221","0.0-10.0-0.2","vp8z","","","","","","null","null","audio_projekt/spuelen1500spulen.wav"
"html-keyboard-response","20","153967","0.0-10.0-1.2","vp8z","","","","","","3745","q","<div></div>"
"audio-keyboard-response","21","157891","0.0-10.0-0.3","vp8z","","","","","","null","null","audio_projekt/spuelen1500spulen.wav"
"html-keyboard-response","22","159526","0.0-10.0-1.3","vp8z","","","","","","1633","q","<div></div>"
"audio-keyboard-response","23","164381","0.0-10.0-0.4","vp8z","","","","","","null","null","audio_projekt/spulen1500spulen.wav"
"html-keyboard-response","24","165100","0.0-10.0-1.4","vp8z","","","","","","717","q","<div></div>"
"audio-keyboard-response","25","169855","0.0-10.0-0.5","vp8z","","","","","","null","null","audio_projekt/lieder1500lieder.wav"
"html-keyboard-response","26","171211","0.0-10.0-1.5","vp8z","","","","","","1355","q","<div></div>"
"audio-keyboard-response","27","176423","0.0-10.0-0.6","vp8z","","","","","","null","null","audio_projekt/kiel1500kiel.wav"
"html-keyboard-response","28","177466","0.0-10.0-1.6","vp8z","","","","","","1042","q","<div></div>"
"audio-keyboard-response","29","182321","0.0-10.0-0.7","vp8z","","","","","","null","null","audio_projekt/tuer1500tour.wav"
"html-keyboard-response","30","183302","0.0-10.0-1.7","vp8z","","","","","","982","p","<div></div>"
"audio-keyboard-response","31","191488","0.0-10.0-0.8","vp8z","","","","","","null","null","audio_projekt/spulen1500spielen.wav"
"html-keyboard-response","32","191911","0.0-10.0-1.8","vp8z","","","","","","423","p","<div></div>"
"audio-keyboard-response","33","196899","0.0-10.0-0.9","vp8z","","","","","","null","null","audio_projekt/biene1500biene.wav"
"html-keyboard-response","34","198201","0.0-10.0-1.9","vp8z","","","","","","1302","q","<div></div>"
"audio-keyboard-response","35","203048","0.0-10.0-0.10","vp8z","","","","","","null","null","audio_projekt/tuer1500tuer.wav"
"html-keyboard-response","36","206576","0.0-10.0-1.10","vp8z","","","","","","3528","q","<div></div>"
"audio-keyboard-response","37","213158","0.0-10.0-0.11","vp8z","","","","","","null","null","audio_projekt/tier1500tour.wav"
"html-keyboard-response","38","215480","0.0-10.0-1.11","vp8z","","","","","","2320","p","<div></div>"
"audio-keyboard-response","39","220171","0.0-10.0-0.12","vp8z","","","","","","null","null","audio_projekt/tour1500tour.wav"
"html-keyboard-response","40","221344","0.0-10.0-1.12","vp8z","","","","","","1173","q","<div></div>"
"audio-keyboard-response","41","226367","0.0-10.0-0.13","vp8z","","","","","","null","null","audio_projekt/tour1500tuer.wav"
"html-keyboard-response","42","228910","0.0-10.0-1.13","vp8z","","","","","","2540","q","<div></div>"
"audio-keyboard-response","43","235793","0.0-10.0-0.14","vp8z","","","","","","null","null","audio_projekt/biene1500buehne.wav"
"html-keyboard-response","44","237261","0.0-10.0-1.14","vp8z","","","","","","1467","p","<div></div>"
"audio-keyboard-response","45","245960","0.0-10.0-0.15","vp8z","","","","","","null","null","audio_projekt/kuehl1500kuehl.wav"
"html-keyboard-response","46","247451","0.0-10.0-1.15","vp8z","","","","","","1491","q","<div></div>"
"audio-keyboard-response","47","251937","0.0-10.0-0.16","vp8z","","","","","","null","null","audio_projekt/kiel1500kuehl.wav"
"html-keyboard-response","48","253253","0.0-10.0-1.16","vp8z","","","","","","1315","p","<div></div>"
"audio-keyboard-response","49","259106","0.0-10.0-0.17","vp8z","","","","","","null","null","audio_projekt/spielen1500spulen.wav"
"html-keyboard-response","50","260454","0.0-10.0-1.17","vp8z","","","","","","1347","p","<div></div>"
"audio-keyboard-response","51","264685","0.0-10.0-0.18","vp8z","","","","","","null","null","audio_projekt/lieder1500leder.wav"
"html-keyboard-response","52","268064","0.0-10.0-1.18","vp8z","","","","","","3377","p","<div></div>"
"audio-keyboard-response","53","271905","0.0-10.0-0.19","vp8z","","","","","","null","null","audio_projekt/bluten1500bluten.wav"
"html-keyboard-response","54","273239","0.0-10.0-1.19","vp8z","","","","","","1333","q","<div></div>"
"audio-keyboard-response","55","279631","0.0-10.0-0.20","vp8z","","","","","","null","null","audio_projekt/siegel1500segel.wav"
"html-keyboard-response","56","281242","0.0-10.0-1.20","vp8z","","","","","","1609","p","<div></div>"
"audio-keyboard-response","57","285777","0.0-10.0-0.21","vp8z","","","","","","null","null","audio_projekt/buehne1500buehne.wav"
"html-keyboard-response","58","289008","0.0-10.0-1.21","vp8z","","","","","","3230","q","<div></div>"
"audio-keyboard-response","59","295000","0.0-10.0-0.22","vp8z","","","","","","null","null","audio_projekt/kuehl1500kiel.wav"
"html-keyboard-response","60","300037","0.0-10.0-1.22","vp8z","","","","","","null","null","<div></div>"
"audio-keyboard-response","61","306723","0.0-10.0-0.23","vp8z","","","","","","null","null","audio_projekt/blueten1500blueten.wav"
"html-keyboard-response","62","310389","0.0-10.0-1.23","vp8z","","","","","","3665","p","<div></div>"
"audio-keyboard-response","63","313897","0.0-10.0-0.24","vp8z","","","","","","null","null","audio_projekt/blueten1500blueten.wav"
"html-keyboard-response","64","314873","0.0-10.0-1.24","vp8z","","","","","","976","q","<div></div>"
"audio-keyboard-response","65","319907","0.0-10.0-0.25","vp8z","","","","","","null","null","audio_projekt/stiel1500stiel.wav"
"html-keyboard-response","66","320445","0.0-10.0-1.25","vp8z","","","","","","535","q","<div></div>"
"audio-keyboard-response","67","323758","0.0-10.0-0.26","vp8z","","","","","","null","null","audio_projekt/tour1500tuer.wav"
"html-keyboard-response","68","326011","0.0-10.0-1.26","vp8z","","","","","","2251","p","<div></div>"
"audio-keyboard-response","69","329622","0.0-10.0-0.27","vp8z","","","","","","null","null","audio_projekt/lieder1500leder.wav"
"html-keyboard-response","70","332003","0.0-10.0-1.27","vp8z","","","","","","2381","p","<div></div>"
"audio-keyboard-response","71","337289","0.0-10.0-0.28","vp8z","","","","","","null","null","audio_projekt/bluten1500blueten.wav"
"html-keyboard-response","72","339237","0.0-10.0-1.28","vp8z","","","","","","1948","q","<div></div>"
"audio-keyboard-response","73","342558","0.0-10.0-0.29","vp8z","","","","","","null","null","audio_projekt/tuer1500tuer.wav"
"html-keyboard-response","74","347568","0.0-10.0-1.29","vp8z","","","","","","null","null","<div></div>"
"audio-keyboard-response","75","351876","0.0-10.0-0.30","vp8z","","","","","","null","null","audio_projekt/stuhl1500stuhl.wav"
"html-keyboard-response","76","353230","0.0-10.0-1.30","vp8z","","","","","","1353","q","<div></div>"
"audio-keyboard-response","77","357348","0.0-10.0-0.31","vp8z","","","","","","null","null","audio_projekt/spielen1500spulen.wav"
"html-keyboard-response","78","357997","0.0-10.0-1.31","vp8z","","","","","","648","p","<div></div>"
"audio-keyboard-response","79","364082","0.0-10.0-0.32","vp8z","","","","","","null","null","audio_projekt/buehne1500biene.wav"
"html-keyboard-response","80","364386","0.0-10.0-1.32","vp8z","","","","","","302","p","<div></div>"
"audio-keyboard-response","81","367949","0.0-10.0-0.33","vp8z","","","","","","null","null","audio_projekt/kiel1500kuehl.wav"
"html-keyboard-response","82","372400","0.0-10.0-1.33","vp8z","","","","","","4451","p","<div></div>"
"audio-keyboard-response","83","378489","0.0-10.0-0.34","vp8z","","","","","","null","null","audio_projekt/siegel1500siegel.wav"
"html-keyboard-response","84","378768","0.0-10.0-1.34","vp8z","","","","","","277","q","<div></div>"
"audio-keyboard-response","85","383736","0.0-10.0-0.35","vp8z","","","","","","null","null","audio_projekt/leder1500leder.wav"
"html-keyboard-response","86","384774","0.0-10.0-1.35","vp8z","","","","","","1036","q","<div></div>"
"audio-keyboard-response","87","389148","0.0-10.0-0.36","vp8z","","","","","","null","null","audio_projekt/stuhl1500stiel.wav"
"html-keyboard-response","88","389699","0.0-10.0-1.36","vp8z","","","","","","548","p","<div></div>"
"audio-keyboard-response","89","394634","0.0-10.0-0.37","vp8z","","","","","","null","null","audio_projekt/spulen1500spuelen.wav"
"html-keyboard-response","90","399639","0.0-10.0-1.37","vp8z","","","","","","null","null","<div></div>"
"audio-keyboard-response","91","407241","0.0-10.0-0.38","vp8z","","","","","","null","null","audio_projekt/stiel1500stuhl.wav"
"html-keyboard-response","92","408223","0.0-10.0-1.38","vp8z","","","","","","980","p","<div></div>"
"audio-keyboard-response","93","412522","0.0-10.0-0.39","vp8z","","","","","","null","null","audio_projekt/spuelen1500spuelen.wav"
"html-keyboard-response","94","412935","0.0-10.0-1.39","vp8z","","","","","","411","p","<div></div>"
"audio-keyboard-response","95","419104","0.0-10.0-0.40","vp8z","","","","","","null","null","audio_projekt/segel1500siegel.wav"
"html-keyboard-response","96","419234","0.0-10.0-1.40","vp8z","","","","","","130","p","<div></div>"
"audio-keyboard-response","97","423085","0.0-10.0-0.41","vp8z","","","","","","null","null","audio_projekt/leder1500lieder.wav"
"html-keyboard-response","98","423922","0.0-10.0-1.41","vp8z","","","","","","837","p","<div></div>"
"audio-keyboard-response","99","427411","0.0-10.0-0.42","vp8z","","","","","","null","null","audio_projekt/blueten1500bluten.wav"
"html-keyboard-response","100","428751","0.0-10.0-1.42","vp8z","","","","","","1339","p","<div></div>"
"audio-keyboard-response","101","434891","0.0-10.0-0.43","vp8z","","","","","","null","null","audio_projekt/tour1500tier.wav"
"html-keyboard-response","102","436552","0.0-10.0-1.43","vp8z","","","","","","1659","p","<div></div>"
"audio-keyboard-response","103","440677","0.0-10.0-0.44","vp8z","","","","","","null","null","audio_projekt/spulen1500spulen.wav"
"html-keyboard-response","104","441244","0.0-10.0-1.44","vp8z","","","","","","566","q","<div></div>"
"audio-keyboard-response","105","444679","0.0-10.0-0.45","vp8z","","","","","","null","null","audio_projekt/biene1500biene.wav"
"html-keyboard-response","106","445370","0.0-10.0-1.45","vp8z","","","","","","689","q","<div></div>"
"audio-keyboard-response","107","451794","0.0-10.0-0.46","vp8z","","","","","","null","null","audio_projekt/segel1500segel.wav"
"html-keyboard-response","108","453193","0.0-10.0-1.46","vp8z","","","","","","1397","q","<div></div>"
"audio-keyboard-response","109","456639","0.0-10.0-0.47","vp8z","","","","","","null","null","audio_projekt/biene1500buehne.wav"
"html-keyboard-response","110","459496","0.0-10.0-1.47","vp8z","","","","","","2856","p","<div></div>"
"audio-keyboard-response","111","463076","0.0-10.0-0.48","vp8z","","","","","","null","null","audio_projekt/kuehl1500kuehl.wav"
"html-keyboard-response","112","468401","0.0-10.0-1.48","vp8z","","","","","","null","null","<div></div>"
"audio-keyboard-response","113","472490","0.0-10.0-0.49","vp8z","","","","","","null","null","audio_projekt/spuelen1500spuelen.wav"
"html-keyboard-response","114","473476","0.0-10.0-1.49","vp8z","","","","","","986","q","<div></div>"
"audio-keyboard-response","115","477450","0.0-10.0-0.50","vp8z","","","","","","null","null","audio_projekt/siegel1500segel.wav"
"html-keyboard-response","116","478164","0.0-10.0-1.50","vp8z","","","","","","713","p","<div></div>"
"audio-keyboard-response","117","481761","0.0-10.0-0.51","vp8z","","","","","","null","null","audio_projekt/lieder1500lieder.wav"
"html-keyboard-response","118","482376","0.0-10.0-1.51","vp8z","","","","","","613","q","<div></div>"
"audio-keyboard-response","119","488245","0.0-10.0-0.52","vp8z","","","","","","null","null","audio_projekt/spielen1500spielen.wav"
"html-keyboard-response","120","488684","0.0-10.0-1.52","vp8z","","","","","","437","q","<div></div>"
"audio-keyboard-response","121","492641","0.0-10.0-0.53","vp8z","","","","","","null","null","audio_projekt/siegel1500siegel.wav"
"html-keyboard-response","122","493479","0.0-10.0-1.53","vp8z","","","","","","835","q","<div></div>"
"audio-keyboard-response","123","497526","0.0-10.0-0.54","vp8z","","","","","","null","null","audio_projekt/tier1500tier.wav"
"html-keyboard-response","124","499146","0.0-10.0-1.54","vp8z","","","","","","1618","q","<div></div>"
"audio-keyboard-response","125","502590","0.0-10.0-0.55","vp8z","","","","","","null","null","audio_projekt/buehne1500buehne.wav"
"html-keyboard-response","126","503662","0.0-10.0-1.55","vp8z","","","","","","1071","q","<div></div>"
"audio-keyboard-response","127","507268","0.0-10.0-0.56","vp8z","","","","","","null","null","audio_projekt/leder1500leder.wav"
"html-keyboard-response","128","507906","0.0-10.0-1.56","vp8z","","","","","","638","q","<div></div>"
"audio-keyboard-response","129","511778","0.0-10.0-0.57","vp8z","","","","","","null","null","audio_projekt/stuhl1500stuhl.wav"
"html-keyboard-response","130","512858","0.0-10.0-1.57","vp8z","","","","","","1079","q","<div></div>"
"audio-keyboard-response","131","517856","0.0-10.0-0.58","vp8z","","","","","","null","null","audio_projekt/spielen1500spuelen.wav"
"html-keyboard-response","132","519552","0.0-10.0-1.58","vp8z","","","","","","1695","q","<div></div>"
"audio-keyboard-response","133","523581","0.0-10.0-0.59","vp8z","","","","","","null","null","audio_projekt/spielen1500spielen.wav"
"html-keyboard-response","134","523835","0.0-10.0-1.59","vp8z","","","","","","252","q","<div></div>"
"audio-keyboard-response","135","527702","0.0-10.0-0.60","vp8z","","","","","","null","null","audio_projekt/spulen1500spuelen.wav"
"html-keyboard-response","136","527969","0.0-10.0-1.60","vp8z","","","","","","266","q","<div></div>"
"audio-keyboard-response","137","531539","0.0-10.0-0.61","vp8z","","","","","","null","null","audio_projekt/kiel1500kiel.wav"
"html-keyboard-response","138","532626","0.0-10.0-1.61","vp8z","","","","","","1086","q","<div></div>"
"audio-keyboard-response","139","536126","0.0-10.0-0.62","vp8z","","","","","","null","null","audio_projekt/bluten1500bluten.wav"
"html-keyboard-response","140","536981","0.0-10.0-1.62","vp8z","","","","","","855","q","<div></div>"
"audio-keyboard-response","141","540305","0.0-10.0-0.63","vp8z","","","","","","null","null","audio_projekt/tour1500tier.wav"
"html-keyboard-response","142","541363","0.0-10.0-1.63","vp8z","","","","","","1057","p","<div></div>"
"audio-keyboard-response","143","544880","0.0-10.0-0.64","vp8z","","","","","","null","null","audio_projekt/bluten1500blueten.wav"
"html-keyboard-response","144","546292","0.0-10.0-1.64","vp8z","","","","","","1412","q","<div></div>"
"audio-keyboard-response","145","549619","0.0-10.0-0.65","vp8z","","","","","","null","null","audio_projekt/tier1500tour.wav"
"html-keyboard-response","146","551013","0.0-10.0-1.65","vp8z","","","","","","1392","p","<div></div>"
"audio-keyboard-response","147","554964","0.0-10.0-0.66","vp8z","","","","","","null","null","audio_projekt/segel1500segel.wav"
"html-keyboard-response","148","557633","0.0-10.0-1.66","vp8z","","","","","","2667","q","<div></div>"
"audio-keyboard-response","149","561708","0.0-10.0-0.67","vp8z","","","","","","null","null","audio_projekt/spielen1500spuelen.wav"
"html-keyboard-response","150","564515","0.0-10.0-1.67","vp8z","","","","","","2805","p","<div></div>"
"audio-keyboard-response","151","568491","0.0-10.0-0.68","vp8z","","","","","","null","null","audio_projekt/segel1500siegel.wav"
"html-keyboard-response","152","569232","0.0-10.0-1.68","vp8z","","","","","","739","p","<div></div>"
"audio-keyboard-response","153","572556","0.0-10.0-0.69","vp8z","","","","","","null","null","audio_projekt/tuer1500tour.wav"
"html-keyboard-response","154","573821","0.0-10.0-1.69","vp8z","","","","","","1263","q","<div></div>"
"audio-keyboard-response","155","577962","0.0-10.0-0.70","vp8z","","","","","","null","null","audio_projekt/spuelen1500spielen.wav"
"html-keyboard-response","156","579115","0.0-10.0-1.70","vp8z","","","","","","1152","p","<div></div>"
"audio-keyboard-response","157","582718","0.0-10.0-0.71","vp8z","","","","","","null","null","audio_projekt/leder1500lieder.wav"
"html-keyboard-response","158","584898","0.0-10.0-1.71","vp8z","","","","","","2179","p","<div></div>"
"audio-keyboard-response","159","588452","0.0-10.0-0.72","vp8z","","","","","","null","null","audio_projekt/kuehl1500kiel.wav"
"html-keyboard-response","160","590948","0.0-10.0-1.72","vp8z","","","","","","2496","p","<div></div>"
"audio-keyboard-response","161","594262","0.0-10.0-0.73","vp8z","","","","","","null","null","audio_projekt/tier1500tier.wav"
"html-keyboard-response","162","596481","0.0-10.0-1.73","vp8z","","","","","","2219","q","<div></div>"
"audio-keyboard-response","163","600406","0.0-10.0-0.74","vp8z","","","","","","null","null","audio_projekt/stiel1500stiel.wav"
"html-keyboard-response","164","603164","0.0-10.0-1.74","vp8z","","","","","","2756","q","<div></div>"
"audio-keyboard-response","165","607055","0.0-10.0-0.75","vp8z","","","","","","null","null","audio_projekt/stuhl1500stiel.wav"
"html-keyboard-response","166","607743","0.0-10.0-1.75","vp8z","","","","","","687","p","<div></div>"
"audio-keyboard-response","167","611061","0.0-10.0-0.76","vp8z","","","","","","null","null","audio_projekt/tour1500tour.wav"
"html-keyboard-response","168","612717","0.0-10.0-1.76","vp8z","","","","","","1655","q","<div></div>"
"audio-keyboard-response","169","616597","0.0-10.0-0.77","vp8z","","","","","","null","null","audio_projekt/stiel1500stuhl.wav"
"html-keyboard-response","170","617126","0.0-10.0-1.77","vp8z","","","","","","528","p","<div></div>"
"audio-keyboard-response","171","620577","0.0-10.0-0.78","vp8z","","","","","","null","null","audio_projekt/buehne1500biene.wav"
"html-keyboard-response","172","621368","0.0-10.0-1.78","vp8z","","","","","","790","p","<div></div>"
"audio-keyboard-response","173","625482","0.0-10.0-0.79","vp8z","","","","","","null","null","audio_projekt/spulen1500spielen.wav"
"html-keyboard-response","174","626251","0.0-10.0-1.79","vp8z","","","","","","768","p","<div></div>"
"html-keyboard-response","175","1513280","0.0-11.0","vp8z","","","","","","886224"," ","<h2>Pause</h2><div class=""myDiv""><p>Gut gemacht! Jetzt k&ouml;nnen Sie eine kleine Pause machen.</p></div><div><img src=""pics/coffee.png"" title=""Machen Sie eine Pause..."" width=""150"" height=""150"" class=""center""></div><div style=""height:20px; width:100%""></div><p>Wenn Sie bereit sind, dr&uuml;cken Sie eine beliebige Taste, um fortzufahren.</p>"
"html-keyboard-response","176","1523150","0.0-12.0","vp8z","","","","","","9867"," ","<h2>Teil 2: Identifikationsaufgabe: Vorbereitung 1</h2><div class=""myDiv""><p>In diesem Teil des Experimentes werden Sie nur ein Wort h&ouml;ren. </p><p>Anschlie&szlig;end werden zwei Bilder gezeigt. W&auml;hlen Sie das Bild aus, das das Wort darstellt.</p><p>Bevor die Aufgabe beginnt, werden die Bilder mit den entsprechenden W&ouml;rtern angezeigt. Sie werden jedes Bild zweimal sehen.</p><p>Dr&uuml;cken Sie bitte eine beliebige Taste, um die Bilder zu sehen.</p>"
"audio-button-response","177","1527477","0.0-13.0-0.0-0.0","vp8z","","","","","","4110","0","audio_projekt/blueten.wav"
"audio-button-response","178","1530498","0.0-13.0-0.0-0.1","vp8z","","","","","","1613","0","audio_projekt/beten1.wav"
"audio-button-response","179","1532764","0.0-13.0-0.0-0.2","vp8z","","","","","","2089","0","audio_projekt/tuer.wav"
"audio-button-response","180","1537354","0.0-13.0-0.0-0.3","vp8z","","","","","","3938","0","audio_projekt/bluten.wav"
"audio-button-response","181","1550171","0.0-13.0-0.0-0.4","vp8z","","","","","","12292","0","audio_projekt/buehne.wav"
"audio-button-response","182","1552035","0.0-13.0-0.0-0.5","vp8z","","","","","","1594","0","audio_projekt/leder.wav"
"audio-button-response","183","1554158","0.0-13.0-0.0-0.6","vp8z","","","","","","1836","0","audio_projekt/bieten1.wav"
"audio-button-response","184","1556687","0.0-13.0-0.0-0.7","vp8z","","","","","","2231","0","audio_projekt/spulen.wav"
"audio-button-response","185","1558424","0.0-13.0-0.0-0.8","vp8z","","","","","","1603","0","audio_projekt/biene.wav"
"audio-button-response","186","1559603","0.0-13.0-0.0-0.9","vp8z","","","","","","1001","0","audio_projekt/segel.wav"
"audio-button-response","187","1560741","0.0-13.0-0.0-0.10","vp8z","","","","","","980","0","audio_projekt/stuhl.wav"
"audio-button-response","188","1561857","0.0-13.0-0.0-0.11","vp8z","","","","","","997","0","audio_projekt/tier.wav"
"audio-button-response","189","1563226","0.0-13.0-0.0-0.12","vp8z","","","","","","952","0","audio_projekt/treffen2.wav"
"audio-button-response","190","1574121","0.0-13.0-0.0-0.13","vp8z","","","","","","10738","0","audio_projekt/stiel.wav"
"audio-button-response","191","1576437","0.0-13.0-0.0-0.14","vp8z","","","","","","2129","0","audio_projekt/siegel.wav"
"audio-button-response","192","1578429","0.0-13.0-0.0-0.15","vp8z","","","","","","1873","0","audio_projekt/tour.wav"
"audio-button-response","193","1581210","0.0-13.0-0.0-0.16","vp8z","","","","","","2574","0","audio_projekt/lieder.wav"
"audio-button-response","194","1583046","0.0-13.0-0.0-0.17","vp8z","","","","","","1638","0","audio_projekt/spuelen2.wav"
"audio-button-response","195","1584437","0.0-13.0-0.0-0.18","vp8z","","","","","","1264","0","audio_projekt/kiel.wav"
"audio-button-response","196","1585447","0.0-13.0-0.0-0.19","vp8z","","","","","","883","0","audio_projekt/kuehl.wav"
"audio-button-response","197","1586619","0.0-13.0-0.0-0.20","vp8z","","","","","","1023","0","audio_projekt/spielen2.wav"
"audio-button-response","198","1595016","0.0-13.0-0.0-0.21","vp8z","","","","","","8246","0","audio_projekt/triefen1.wav"
"audio-button-response","199","1596231","0.0-13.0-0.1-0.22","vp8z","","","","","","1212","0","audio_projekt/blueten.wav"
"audio-button-response","200","1597055","0.0-13.0-0.1-0.23","vp8z","","","","","","822","0","audio_projekt/beten1.wav"
"audio-button-response","201","1598094","0.0-13.0-0.1-0.24","vp8z","","","","","","1036","0","audio_projekt/tuer.wav"
"audio-button-response","202","1602048","0.0-13.0-0.1-0.25","vp8z","","","","","","3952","0","audio_projekt/bluten.wav"
"audio-button-response","203","1603269","0.0-13.0-0.1-0.26","vp8z","","","","","","1219","0","audio_projekt/buehne.wav"
"audio-button-response","204","1604850","0.0-13.0-0.1-0.27","vp8z","","","","","","1578","0","audio_projekt/leder.wav"
"audio-button-response","205","1605423","0.0-13.0-0.1-0.28","vp8z","","","","","","569","0","audio_projekt/bieten1.wav"
"audio-button-response","206","1605980","0.0-13.0-0.1-0.29","vp8z","","","","","","557","0","audio_projekt/spulen.wav"
"audio-button-response","207","1606559","0.0-13.0-0.1-0.30","vp8z","","","","","","576","0","audio_projekt/biene.wav"
"audio-button-response","208","1607167","0.0-13.0-0.1-0.31","vp8z","","","","","","607","0","audio_projekt/segel.wav"
"audio-button-response","209","1607868","0.0-13.0-0.1-0.32","vp8z","","","","","","697","0","audio_projekt/stuhl.wav"
"audio-button-response","210","1608595","0.0-13.0-0.1-0.33","vp8z","","","","","","726","0","audio_projekt/tier.wav"
"audio-button-response","211","1609427","0.0-13.0-0.1-0.34","vp8z","","","","","","830","0","audio_projekt/treffen2.wav"
"audio-button-response","212","1610210","0.0-13.0-0.1-0.35","vp8z","","","","","","781","0","audio_projekt/stiel.wav"
"audio-button-response","213","1610797","0.0-13.0-0.1-0.36","vp8z","","","","","","584","0","audio_projekt/siegel.wav"
"audio-button-response","214","1611511","0.0-13.0-0.1-0.37","vp8z","","","","","","710","0","audio_projekt/tour.wav"
"audio-button-response","215","1611849","0.0-13.0-0.1-0.38","vp8z","","","","","","337","0","audio_projekt/lieder.wav"
"audio-button-response","216","1612096","0.0-13.0-0.1-0.39","vp8z","","","","","","244","0","audio_projekt/spuelen2.wav"
"audio-button-response","217","1612300","0.0-13.0-0.1-0.40","vp8z","","","","","","203","0","audio_projekt/kiel.wav"
"audio-button-response","218","1612534","0.0-13.0-0.1-0.41","vp8z","","","","","","231","0","audio_projekt/kuehl.wav"
"audio-button-response","219","1612732","0.0-13.0-0.1-0.42","vp8z","","","","","","196","0","audio_projekt/spielen2.wav"
"audio-button-response","220","1612944","0.0-13.0-0.1-0.43","vp8z","","","","","","210","0","audio_projekt/triefen1.wav"
"html-keyboard-response","221","1617800","0.0-14.0","vp8z","","","","","","4855"," ","<h2>Teil 2: Identifikationsaufgabe: Vorbereitung 2</h2><div class=""myDiv""><p>Jetzt können Sie einen kurzen Probedurchlauf f&uuml;r diesen Teil des Experiments machen.</p><p>W&auml;hlen Sie das Bild aus, das das Wort darstellt. <ul><li>Dr&uuml;cken Sie die <b>Taste Q</b>, um das <b>linke</b> Bild auszuw&auml;hlen. Dr&uuml;cken Sie die <b>Taste P</b>, um das <b>rechte</b> Bild auszuw&auml;hlen.</li> <li>Sie haben 5 Sekunden Zeit, um sich f&uuml;r eines der Bilder zu entscheiden. </li><li>Bitte warten Sie, bis Sie <b>das ganze Wort gehört haben</b>, bevor Sie eine Taste drücken.</li></ul></p><p>Dr&uuml;cken Sie eine beliebige Taste, um den Probedurchlauf anzufangen.</p>"
"audio-keyboard-response","222","1618527","0.0-15.0-0.0","vp8z","","","","","","null","null","audio_projekt/treffen2.wav"
"image-keyboard-response","223","1621555","0.0-15.0-1.0","vp8z","","","","","","3026","p","pics/scaled/triefen_treffen.png"
"audio-keyboard-response","224","1623003","0.0-15.0-0.1","vp8z","","","","","","null","null","audio_projekt/beten1.wav"
"image-keyboard-response","225","1625853","0.0-15.0-1.1","vp8z","","","","","","2849","p","pics/scaled/bieten_beten.jpg"
"html-keyboard-response","226","1629270","0.0-16.0","vp8z","","","","","","2606"," ","<h2>Teil 2: Identifikationsaufgabe</h2><p>Jetzt sind Sie darauf vorbereitet, die Identifikationsaufgabe auszuführen.</p><p>Sind Sie bereit? Dann dr&uuml;cken Sie eine beliebige Taste, um anzufangen.</p>"
"audio-keyboard-response","227","1630105","0.0-17.0-0.0","vp8z","","","","","","null","null","audio_projekt/siegel.wav"
"image-keyboard-response","228","1631242","0.0-17.0-1.0","vp8z","","","","","","1137","p","pics/scaled/siegel_segel.jpg"
"audio-keyboard-response","229","1632748","0.0-17.0-0.1","vp8z","","","","","","null","null","audio_projekt/kuehl.wav"
"image-keyboard-response","230","1634223","0.0-17.0-1.1","vp8z","","","","","","1474","p","pics/scaled/kiel_kuehl.jpg"
"audio-keyboard-response","231","1635544","0.0-17.0-0.2","vp8z","","","","","","null","null","audio_projekt/tour.wav"
"image-keyboard-response","232","1637943","0.0-17.0-1.2","vp8z","","","","","","2398","q","pics/scaled/tuer_tour.jpg"
"audio-keyboard-response","233","1639389","0.0-17.0-0.3","vp8z","","","","","","null","null","audio_projekt/leder.wav"
"image-keyboard-response","234","1640085","0.0-17.0-1.3","vp8z","","","","","","695","q","pics/scaled/lieder_leder.jpg"
"audio-keyboard-response","235","1641380","0.0-17.0-0.4","vp8z","","","","","","null","null","audio_projekt/tier.wav"
"image-keyboard-response","236","1643945","0.0-17.0-1.4","vp8z","","","","","","2564","q","pics/scaled/tier_tour.jpg"
"audio-keyboard-response","237","1645653","0.0-17.0-0.5","vp8z","","","","","","null","null","audio_projekt/spielen2.wav"
"image-keyboard-response","238","1646845","0.0-17.0-1.5","vp8z","","","","","","1191","p","pics/scaled/spielen_spulen.jpg"
"audio-keyboard-response","239","1648215","0.0-17.0-0.6","vp8z","","","","","","null","null","audio_projekt/buehne.wav"
"image-keyboard-response","240","1650743","0.0-17.0-1.6","vp8z","","","","","","2527","p","pics/scaled/biene_buehne.png"
"audio-keyboard-response","241","1652457","0.0-17.0-0.7","vp8z","","","","","","null","null","audio_projekt/spuelen2.wav"
"image-keyboard-response","242","1654471","0.0-17.0-1.7","vp8z","","","","","","2013","p","pics/scaled/spielen_spuelen.jpg"
"audio-keyboard-response","243","1656201","0.0-17.0-0.8","vp8z","","","","","","null","null","audio_projekt/spulen.wav"
"image-keyboard-response","244","1660280","0.0-17.0-1.8","vp8z","","","","","","4077","q","pics/scaled/spulen_spuelen.jpg"
"audio-keyboard-response","245","1661691","0.0-17.0-0.9","vp8z","","","","","","null","null","audio_projekt/blueten.wav"
"image-keyboard-response","246","1665070","0.0-17.0-1.9","vp8z","","","","","","3378","p","pics/scaled/bluten_blueten.jpg"
"audio-keyboard-response","247","1666508","0.0-17.0-0.10","vp8z","","","","","","null","null","audio_projekt/kiel.wav"
"image-keyboard-response","248","1667087","0.0-17.0-1.10","vp8z","","","","","","577","q","pics/scaled/kiel_kuehl.jpg"
"audio-keyboard-response","249","1668677","0.0-17.0-0.11","vp8z","","","","","","null","null","audio_projekt/stiel.wav"
"image-keyboard-response","250","1669307","0.0-17.0-1.11","vp8z","","","","","","630","q","pics/scaled/stiel2_stuhl.jpg"
"audio-keyboard-response","251","1670942","0.0-17.0-0.12","vp8z","","","","","","null","null","audio_projekt/segel.wav"
"image-keyboard-response","252","1671199","0.0-17.0-1.12","vp8z","","","","","","255","q","pics/scaled/siegel_segel.jpg"
"audio-keyboard-response","253","1673081","0.0-17.0-0.13","vp8z","","","","","","null","null","audio_projekt/spielen.wav"
"image-keyboard-response","254","1673277","0.0-17.0-1.13","vp8z","","","","","","195","q","pics/scaled/spielen_spuelen.jpg"
"audio-keyboard-response","255","1674679","0.0-17.0-0.14","vp8z","","","","","","null","null","audio_projekt/blueten.wav"
"image-keyboard-response","256","1675389","0.0-17.0-1.14","vp8z","","","","","","708","p","pics/scaled/bluten_blueten.jpg"
"audio-keyboard-response","257","1677026","0.0-17.0-0.15","vp8z","","","","","","null","null","audio_projekt/segel.wav"
"image-keyboard-response","258","1677159","0.0-17.0-1.15","vp8z","","","","","","132","q","pics/scaled/siegel_segel.jpg"
"audio-keyboard-response","259","1678848","0.0-17.0-0.16","vp8z","","","","","","null","null","audio_projekt/spuelen2.wav"
"image-keyboard-response","260","1681037","0.0-17.0-1.16","vp8z","","","","","","2189","p","pics/scaled/spulen_spuelen.jpg"
"audio-keyboard-response","261","1682731","0.0-17.0-0.17","vp8z","","","","","","null","null","audio_projekt/spuelen2.wav"
"image-keyboard-response","262","1683020","0.0-17.0-1.17","vp8z","","","","","","289","p","pics/scaled/spulen_spuelen.jpg"
"audio-keyboard-response","263","1684613","0.0-17.0-0.18","vp8z","","","","","","null","null","audio_projekt/stuhl.wav"
"image-keyboard-response","264","1684896","0.0-17.0-1.18","vp8z","","","","","","281","p","pics/scaled/stiel2_stuhl.jpg"
"audio-keyboard-response","265","1686185","0.0-17.0-0.19","vp8z","","","","","","null","null","audio_projekt/tuer.wav"
"image-keyboard-response","266","1687172","0.0-17.0-1.19","vp8z","","","","","","986","q","pics/scaled/tuer_tour.jpg"
"audio-keyboard-response","267","1688869","0.0-17.0-0.20","vp8z","","","","","","null","null","audio_projekt/spuelen2.wav"
"image-keyboard-response","268","1689528","0.0-17.0-1.20","vp8z","","","","","","658","p","pics/scaled/spulen_spuelen.jpg"
"audio-keyboard-response","269","1690921","0.0-17.0-0.21","vp8z","","","","","","null","null","audio_projekt/blueten.wav"
"image-keyboard-response","270","1691618","0.0-17.0-1.21","vp8z","","","","","","696","p","pics/scaled/bluten_blueten.jpg"
"audio-keyboard-response","271","1692971","0.0-17.0-0.22","vp8z","","","","","","null","null","audio_projekt/biene.wav"
"image-keyboard-response","272","1694301","0.0-17.0-1.22","vp8z","","","","","","1330","q","pics/scaled/biene_buehne.png"
"audio-keyboard-response","273","1695662","0.0-17.0-0.23","vp8z","","","","","","null","null","audio_projekt/biene.wav"
"image-keyboard-response","274","1695826","0.0-17.0-1.23","vp8z","","","","","","163","q","pics/scaled/biene_buehne.png"
"audio-keyboard-response","275","1697112","0.0-17.0-0.24","vp8z","","","","","","null","null","audio_projekt/tour.wav"
"image-keyboard-response","276","1699736","0.0-17.0-1.24","vp8z","","","","","","2621","p","pics/scaled/tier_tour.jpg"
"audio-keyboard-response","277","1701439","0.0-17.0-0.25","vp8z","","","","","","null","null","audio_projekt/spulen.wav"
"image-keyboard-response","278","1703296","0.0-17.0-1.25","vp8z","","","","","","1855","q","pics/scaled/spielen_spulen.jpg"
"audio-keyboard-response","279","1704594","0.0-17.0-0.26","vp8z","","","","","","null","null","audio_projekt/tour.wav"
"image-keyboard-response","280","1705039","0.0-17.0-1.26","vp8z","","","","","","444","p","pics/scaled/tier_tour.jpg"
"audio-keyboard-response","281","1706337","0.0-17.0-0.27","vp8z","","","","","","null","null","audio_projekt/tour.wav"
"image-keyboard-response","282","1706603","0.0-17.0-1.27","vp8z","","","","","","265","p","pics/scaled/tier_tour.jpg"
"audio-keyboard-response","283","1708133","0.0-17.0-0.28","vp8z","","","","","","null","null","audio_projekt/lieder.wav"
"image-keyboard-response","284","1708639","0.0-17.0-1.28","vp8z","","","","","","505","p","pics/scaled/lieder_leder.jpg"
"audio-keyboard-response","285","1710418","0.0-17.0-0.29","vp8z","","","","","","null","null","audio_projekt/spulen.wav"
"image-keyboard-response","286","1710926","0.0-17.0-1.29","vp8z","","","","","","507","q","pics/scaled/spielen_spulen.jpg"
"audio-keyboard-response","287","1712519","0.0-17.0-0.30","vp8z","","","","","","null","null","audio_projekt/stuhl.wav"
"image-keyboard-response","288","1712647","0.0-17.0-1.30","vp8z","","","","","","126","p","pics/scaled/stiel2_stuhl.jpg"
"audio-keyboard-response","289","1714022","0.0-17.0-0.31","vp8z","","","","","","null","null","audio_projekt/tour.wav"
"image-keyboard-response","290","1715260","0.0-17.0-1.31","vp8z","","","","","","1237","q","pics/scaled/tuer_tour.jpg"
"audio-keyboard-response","291","1716890","0.0-17.0-0.32","vp8z","","","","","","null","null","audio_projekt/segel.wav"
"image-keyboard-response","292","1717348","0.0-17.0-1.32","vp8z","","","","","","456","q","pics/scaled/siegel_segel.jpg"
"audio-keyboard-response","293","1718769","0.0-17.0-0.33","vp8z","","","","","","null","null","audio_projekt/kuehl.wav"
"image-keyboard-response","294","1719592","0.0-17.0-1.33","vp8z","","","","","","821","p","pics/scaled/kiel_kuehl.jpg"
"audio-keyboard-response","295","1721037","0.0-17.0-0.34","vp8z","","","","","","null","null","audio_projekt/leder.wav"
"image-keyboard-response","296","1721355","0.0-17.0-1.34","vp8z","","","","","","318","q","pics/scaled/lieder_leder.jpg"
"audio-keyboard-response","297","1723055","0.0-17.0-0.35","vp8z","","","","","","null","null","audio_projekt/spielen.wav"
"image-keyboard-response","298","1724073","0.0-17.0-1.35","vp8z","","","","","","1017","q","pics/scaled/spielen_spuelen.jpg"
"audio-keyboard-response","299","1725364","0.0-17.0-0.36","vp8z","","","","","","null","null","audio_projekt/tuer.wav"
"image-keyboard-response","300","1727339","0.0-17.0-1.36","vp8z","","","","","","1973","p","pics/scaled/tuer_tour.jpg"
"audio-keyboard-response","301","1728975","0.0-17.0-0.37","vp8z","","","","","","null","null","audio_projekt/siegel.wav"
"image-keyboard-response","302","1729240","0.0-17.0-1.37","vp8z","","","","","","264","p","pics/scaled/siegel_segel.jpg"
"audio-keyboard-response","303","1730672","0.0-17.0-0.38","vp8z","","","","","","null","null","audio_projekt/kiel.wav"
"image-keyboard-response","304","1730937","0.0-17.0-1.38","vp8z","","","","","","264","q","pics/scaled/kiel_kuehl.jpg"
"audio-keyboard-response","305","1732244","0.0-17.0-0.39","vp8z","","","","","","null","null","audio_projekt/tier.wav"
"image-keyboard-response","306","1732527","0.0-17.0-1.39","vp8z","","","","","","280","q","pics/scaled/tier_tour.jpg"
"audio-keyboard-response","307","1734034","0.0-17.0-0.40","vp8z","","","","","","null","null","audio_projekt/leder.wav"
"image-keyboard-response","308","1734056","0.0-17.0-1.40","vp8z","","","","","","22","q","pics/scaled/lieder_leder.jpg"
"audio-keyboard-response","309","1735454","0.0-17.0-0.41","vp8z","","","","","","null","null","audio_projekt/bluten.wav"
"image-keyboard-response","310","1736074","0.0-17.0-1.41","vp8z","","","","","","620","p","pics/scaled/bluten_blueten.jpg"
"audio-keyboard-response","311","1737370","0.0-17.0-0.42","vp8z","","","","","","null","null","audio_projekt/tour.wav"
"image-keyboard-response","312","1738174","0.0-17.0-1.42","vp8z","","","","","","802","q","pics/scaled/tuer_tour.jpg"
"audio-keyboard-response","313","1739872","0.0-17.0-0.43","vp8z","","","","","","null","null","audio_projekt/spuelen2.wav"
"image-keyboard-response","314","1739992","0.0-17.0-1.43","vp8z","","","","","","118","p","pics/scaled/spielen_spuelen.jpg"
"audio-keyboard-response","315","1741694","0.0-17.0-0.44","vp8z","","","","","","null","null","audio_projekt/spulen.wav"
"image-keyboard-response","316","1744639","0.0-17.0-1.44","vp8z","","","","","","2944","q","pics/scaled/spulen_spuelen.jpg"
"audio-keyboard-response","317","1746339","0.0-17.0-0.45","vp8z","","","","","","null","null","audio_projekt/spielen.wav"
"image-keyboard-response","318","1746384","0.0-17.0-1.45","vp8z","","","","","","43","q","pics/scaled/spielen_spuelen.jpg"
"audio-keyboard-response","319","1747744","0.0-17.0-0.46","vp8z","","","","","","null","null","audio_projekt/buehne.wav"
"image-keyboard-response","320","1748115","0.0-17.0-1.46","vp8z","","","","","","369","p","pics/scaled/biene_buehne.png"
"audio-keyboard-response","321","1749475","0.0-17.0-0.47","vp8z","","","","","","null","null","audio_projekt/biene.wav"
"image-keyboard-response","322","1750451","0.0-17.0-1.47","vp8z","","","","","","975","q","pics/scaled/biene_buehne.png"
"audio-keyboard-response","323","1751898","0.0-17.0-0.48","vp8z","","","","","","null","null","audio_projekt/lieder.wav"
"image-keyboard-response","324","1752196","0.0-17.0-1.48","vp8z","","","","","","298","p","pics/scaled/lieder_leder.jpg"
"audio-keyboard-response","325","1753493","0.0-17.0-0.49","vp8z","","","","","","null","null","audio_projekt/tier.wav"
"image-keyboard-response","326","1754122","0.0-17.0-1.49","vp8z","","","","","","627","q","pics/scaled/tier_tour.jpg"
"audio-keyboard-response","327","1755755","0.0-17.0-0.50","vp8z","","","","","","null","null","audio_projekt/stiel.wav"
"image-keyboard-response","328","1755881","0.0-17.0-1.50","vp8z","","","","","","126","q","pics/scaled/stiel2_stuhl.jpg"
"audio-keyboard-response","329","1757576","0.0-17.0-0.51","vp8z","","","","","","null","null","audio_projekt/spuelen2.wav"
"image-keyboard-response","330","1757671","0.0-17.0-1.51","vp8z","","","","","","94","p","pics/scaled/spielen_spuelen.jpg"
"audio-keyboard-response","331","1759374","0.0-17.0-0.52","vp8z","","","","","","null","null","audio_projekt/spulen.wav"
"image-keyboard-response","332","1760592","0.0-17.0-1.52","vp8z","","","","","","1218","q","pics/scaled/spulen_spuelen.jpg"
"audio-keyboard-response","333","1762404","0.0-17.0-0.53","vp8z","","","","","","null","null","audio_projekt/spulen.wav"
"image-keyboard-response","334","1763305","0.0-17.0-1.53","vp8z","","","","","","900","q","pics/scaled/spielen_spulen.jpg"
"audio-keyboard-response","335","1764618","0.0-17.0-0.54","vp8z","","","","","","null","null","audio_projekt/tuer.wav"
"image-keyboard-response","336","1765517","0.0-17.0-1.54","vp8z","","","","","","898","q","pics/scaled/tuer_tour.jpg"
"audio-keyboard-response","337","1766957","0.0-17.0-0.55","vp8z","","","","","","null","null","audio_projekt/lieder.wav"
"image-keyboard-response","338","1767275","0.0-17.0-1.55","vp8z","","","","","","317","p","pics/scaled/lieder_leder.jpg"
"audio-keyboard-response","339","1768637","0.0-17.0-0.56","vp8z","","","","","","null","null","audio_projekt/buehne.wav"
"image-keyboard-response","340","1769022","0.0-17.0-1.56","vp8z","","","","","","384","p","pics/scaled/biene_buehne.png"
"audio-keyboard-response","341","1770423","0.0-17.0-0.57","vp8z","","","","","","null","null","audio_projekt/bluten.wav"
"image-keyboard-response","342","1771275","0.0-17.0-1.57","vp8z","","","","","","852","p","pics/scaled/bluten_blueten.jpg"
"audio-keyboard-response","343","1772987","0.0-17.0-0.58","vp8z","","","","","","null","null","audio_projekt/spielen2.wav"
"image-keyboard-response","344","1773518","0.0-17.0-1.58","vp8z","","","","","","531","p","pics/scaled/spielen_spulen.jpg"
"audio-keyboard-response","345","1774944","0.0-17.0-0.59","vp8z","","","","","","null","null","audio_projekt/kuehl.wav"
"image-keyboard-response","346","1775320","0.0-17.0-1.59","vp8z","","","","","","377","p","pics/scaled/kiel_kuehl.jpg"
"audio-keyboard-response","347","1777019","0.0-17.0-0.60","vp8z","","","","","","null","null","audio_projekt/spielen2.wav"
"image-keyboard-response","348","1777163","0.0-17.0-1.60","vp8z","","","","","","142","p","pics/scaled/spielen_spulen.jpg"
"audio-keyboard-response","349","1778584","0.0-17.0-0.61","vp8z","","","","","","null","null","audio_projekt/kiel.wav"
"image-keyboard-response","350","1779076","0.0-17.0-1.61","vp8z","","","","","","490","q","pics/scaled/kiel_kuehl.jpg"
"audio-keyboard-response","351","1780723","0.0-17.0-0.62","vp8z","","","","","","null","null","audio_projekt/siegel.wav"
"image-keyboard-response","352","1780738","0.0-17.0-1.62","vp8z","","","","","","13","p","pics/scaled/siegel_segel.jpg"
"audio-keyboard-response","353","1782321","0.0-17.0-0.63","vp8z","","","","","","null","null","audio_projekt/stuhl.wav"
"image-keyboard-response","354","1782396","0.0-17.0-1.63","vp8z","","","","","","74","p","pics/scaled/stiel2_stuhl.jpg"
"audio-keyboard-response","355","1783985","0.0-17.0-0.64","vp8z","","","","","","null","null","audio_projekt/stiel.wav"
"image-keyboard-response","356","1784193","0.0-17.0-1.64","vp8z","","","","","","207","q","pics/scaled/stiel2_stuhl.jpg"
"audio-keyboard-response","357","1785588","0.0-17.0-0.65","vp8z","","","","","","null","null","audio_projekt/bluten.wav"
"image-keyboard-response","358","1786092","0.0-17.0-1.65","vp8z","","","","","","503","p","pics/scaled/bluten_blueten.jpg"
