"trial_type","trial_index","time_elapsed","internal_node_id","subject","success","timeout","failed_images","failed_audio","failed_video","rt","response","stimulus"
"pavlovia","0","618","0.0-0.0","wl2w","","","","","","","",""
"preload","1","619","0.0-1.0","wl2w","true","false","[]","[]","[]","","",""
"survey-html-form","2","7963","0.0-2.0","wl2w","","","","","","7343","{""code"":""60b36a96346dd63678e6cfe6""}",""
"html-button-response","3","57371","0.0-3.0","wl2w","","","","","","49407","0","<h2>Willkommen zum Experiment!</h2><div class=""myDiv""><p>Vielen Dank f&uuml;r Ihr Interesse an dieser Studie. Wir bitten Sie <strong>Kopfh&ouml;rer</strong> daf&uuml;r zu verwenden.</p></div><div><img src=""pics/headphones.png"" title=""Earbuds are also fine"" width=""250"" height=""200"" class=""center""></div><div class=""myDiv""><p>Das Experiment besteht aus zwei Teilen:</p> <ol> <li>Eine <strong>Unterscheidungsaufgabe,</strong> in der Sie zwei W&ouml;rter h&ouml;ren. Im Anschluss sollen Sie feststellen, ob diese W&ouml;rter gleich oder unterschiedlich sind;</li><li>Eine <strong>Identifikationsaufgabe,</strong> in der Sie nur ein Wort h&ouml;ren, wobei Ihnen aber zwei Bilder gezeigt werden. Ihre Aufgabe ist es, dasjenige Bild auszuw&auml;hlen, das das geh&ouml;rte Wort darstellt.</li> </ol><p>Wir bitten Sie um Ihre Zustimmung, bevor wir Ihre Daten sammeln und verwenden. Bitte klicken Sie auf den ""Start""-Button, um Ihre Zustimmung zu geben. Anschlie&szlig;end werden wir ein paar Fragen zu Ihren Sprachkenntnissen stellen. Danach k&ouml;nnen Sie das Experiment starten. </p></div>"
"survey-html-form","4","65627","0.0-4.0","wl2w","","","","","","8255","{""zustimmung"":""on""}",""
"survey-html-form","5","345227","0.0-5.0","wl2w","","","","","","279599","{""native"":""Englisch"",""AOL"":""1998"",""LearnType1"":""classeshome"",""LearnType2"":""selflearn"",""LearnType3"":""lgeschool"",""which"":""Deutschkurs (Open Universität und Goethe Institut)"",""AOA"":""n. z."",""timespent"":""n. z. ""}",""
"audio-button-response","6","354362","0.0-6.0-0.0","wl2w","","","","","","8815","0","audio_projekt/treffen1.wav"
"audio-button-response","7","355570","0.0-6.1-0.1","wl2w","","","","","","1207","1","audio_projekt/treffen1.wav"
"html-keyboard-response","8","385189","0.0-7.0","wl2w","","","","","","29618","p","<h2>Teil 1: Unterscheidungsaufgabe</h2><div class=""myDiv""><p>In diesem Teil des Experimentes werden Sie im Abstand von 1.5 Sekunden <b>zwei W&ouml;rter</b> h&ouml;ren.</p><ul><li>Ihre Aufgabe ist es, festzustellen, ob diese W&ouml;rter <b>gleich oder unterschiedlich</b> sind. Wenn es einen Unterschied gibt, besteht dieser nur aus einem Vokal. </li> <li>Dr&uuml;cken Sie die <b>Taste Q</b>, wenn die W&ouml;rter gleich sind. Dr&uuml;cken Sie die <b>Taste P</b>, wenn die W&ouml;rter unterschiedlich sind.</li><li>Bitte warten Sie, bis Sie <b>beide Wörter gehört haben</b>, bevor Sie eine Taste drücken. Aber Achtung: Sie haben nur <b>5 Sekunden</b>, um eine Option auszuw&auml;hlen! &Uuml;berlegen Sie daher bitte nicht zu lange.</li></ul><br><p>Dr&uuml;cken Sie eine beliebige Taste, um ein paar Testversuche zu machen.</p></ul></div>"
"audio-keyboard-response","9","388629","0.0-8.0-0.0","wl2w","","","","","","null","null","audio_projekt/treffen1500triefen.wav"
"html-keyboard-response","10","389646","0.0-8.0-1.0","wl2w","","","","","","1017","p","<div></div>"
"audio-keyboard-response","11","393509","0.0-8.0-0.1","wl2w","","","","","","null","null","audio_projekt/treffen1500treffen.wav"
"html-keyboard-response","12","393830","0.0-8.0-1.1","wl2w","","","","","","321","q","<div></div>"
"html-keyboard-response","13","399136","0.0-9.0","wl2w","","","","","","4496"," ","<p>Gut! Jetzt f&auml;ngt der erste Teil des Experiments an. Dieser Teil dauert ca. 10 Minuten.</p><br><p>Bitte dr&uuml;cken Sie eine beliebige Taste, um fortzufahren.<div style=""height:30px; width:100%""></div>"
"audio-keyboard-response","14","402310","0.0-10.0-0.0","wl2w","","","","","","null","null","audio_projekt/stiel1500stuhl.wav"
"html-keyboard-response","15","403071","0.0-10.0-1.0","wl2w","","","","","","761","p","<div></div>"
"audio-keyboard-response","16","406709","0.0-10.0-0.1","wl2w","","","","","","null","null","audio_projekt/blueten1500bluten.wav"
"html-keyboard-response","17","407290","0.0-10.0-1.1","wl2w","","","","","","580","q","<div></div>"
"audio-keyboard-response","18","410970","0.0-10.0-0.2","wl2w","","","","","","null","null","audio_projekt/kuehl1500kiel.wav"
"html-keyboard-response","19","411708","0.0-10.0-1.2","wl2w","","","","","","738","p","<div></div>"
"audio-keyboard-response","20","415390","0.0-10.0-0.3","wl2w","","","","","","null","null","audio_projekt/kiel1500kuehl.wav"
"html-keyboard-response","21","416042","0.0-10.0-1.3","wl2w","","","","","","652","p","<div></div>"
"audio-keyboard-response","22","419450","0.0-10.0-0.4","wl2w","","","","","","null","null","audio_projekt/tuer1500tour.wav"
"html-keyboard-response","23","420123","0.0-10.0-1.4","wl2w","","","","","","673","p","<div></div>"
"audio-keyboard-response","24","424210","0.0-10.0-0.5","wl2w","","","","","","null","null","audio_projekt/segel1500siegel.wav"
"html-keyboard-response","25","425328","0.0-10.0-1.5","wl2w","","","","","","1118","p","<div></div>"
"audio-keyboard-response","26","428990","0.0-10.0-0.6","wl2w","","","","","","null","null","audio_projekt/kiel1500kiel.wav"
"html-keyboard-response","27","429834","0.0-10.0-1.6","wl2w","","","","","","844","q","<div></div>"
"audio-keyboard-response","28","433930","0.0-10.0-0.7","wl2w","","","","","","null","null","audio_projekt/siegel1500segel.wav"
"html-keyboard-response","29","434454","0.0-10.0-1.7","wl2w","","","","","","524","p","<div></div>"
"audio-keyboard-response","30","438130","0.0-10.0-0.8","wl2w","","","","","","null","null","audio_projekt/kuehl1500kuehl.wav"
"html-keyboard-response","31","438894","0.0-10.0-1.8","wl2w","","","","","","764","q","<div></div>"
"audio-keyboard-response","32","443090","0.0-10.0-0.9","wl2w","","","","","","null","null","audio_projekt/spuelen1500spuelen.wav"
"html-keyboard-response","33","443406","0.0-10.0-1.9","wl2w","","","","","","316","q","<div></div>"
"audio-keyboard-response","34","446810","0.0-10.0-0.10","wl2w","","","","","","null","null","audio_projekt/tier1500tour.wav"
"html-keyboard-response","35","447375","0.0-10.0-1.10","wl2w","","","","","","565","p","<div></div>"
"audio-keyboard-response","36","450990","0.0-10.0-0.11","wl2w","","","","","","null","null","audio_projekt/bluten1500blueten.wav"
"html-keyboard-response","37","452162","0.0-10.0-1.11","wl2w","","","","","","1172","q","<div></div>"
"audio-keyboard-response","38","455550","0.0-10.0-0.12","wl2w","","","","","","null","null","audio_projekt/tuer1500tuer.wav"
"html-keyboard-response","39","456078","0.0-10.0-1.12","wl2w","","","","","","528","q","<div></div>"
"audio-keyboard-response","40","460070","0.0-10.0-0.13","wl2w","","","","","","null","null","audio_projekt/stuhl1500stiel.wav"
"html-keyboard-response","41","460374","0.0-10.0-1.13","wl2w","","","","","","304","p","<div></div>"
"audio-keyboard-response","42","464090","0.0-10.0-0.14","wl2w","","","","","","null","null","audio_projekt/lieder1500lieder.wav"
"html-keyboard-response","43","464403","0.0-10.0-1.14","wl2w","","","","","","313","q","<div></div>"
"audio-keyboard-response","44","467890","0.0-10.0-0.15","wl2w","","","","","","null","null","audio_projekt/kiel1500kiel.wav"
"html-keyboard-response","45","468286","0.0-10.0-1.15","wl2w","","","","","","396","q","<div></div>"
"audio-keyboard-response","46","472329","0.0-10.0-0.16","wl2w","","","","","","null","null","audio_projekt/spulen1500spuelen.wav"
"html-keyboard-response","47","473234","0.0-10.0-1.16","wl2w","","","","","","904","p","<div></div>"
"audio-keyboard-response","48","476750","0.0-10.0-0.17","wl2w","","","","","","null","null","audio_projekt/lieder1500lieder.wav"
"html-keyboard-response","49","477142","0.0-10.0-1.17","wl2w","","","","","","391","q","<div></div>"
"audio-keyboard-response","50","480529","0.0-10.0-0.18","wl2w","","","","","","null","null","audio_projekt/tour1500tier.wav"
"html-keyboard-response","51","480802","0.0-10.0-1.18","wl2w","","","","","","272","p","<div></div>"
"audio-keyboard-response","52","485069","0.0-10.0-0.19","wl2w","","","","","","null","null","audio_projekt/spulen1500spulen.wav"
"html-keyboard-response","53","485194","0.0-10.0-1.19","wl2w","","","","","","124","q","<div></div>"
"audio-keyboard-response","54","488909","0.0-10.0-0.20","wl2w","","","","","","null","null","audio_projekt/lieder1500leder.wav"
"html-keyboard-response","55","489079","0.0-10.0-1.20","wl2w","","","","","","170","p","<div></div>"
"audio-keyboard-response","56","492789","0.0-10.0-0.21","wl2w","","","","","","null","null","audio_projekt/leder1500leder.wav"
"html-keyboard-response","57","495014","0.0-10.0-1.21","wl2w","","","","","","2224","q","<div></div>"
"audio-keyboard-response","58","498909","0.0-10.0-0.22","wl2w","","","","","","null","null","audio_projekt/segel1500siegel.wav"
"html-keyboard-response","59","499120","0.0-10.0-1.22","wl2w","","","","","","210","p","<div></div>"
"audio-keyboard-response","60","502529","0.0-10.0-0.23","wl2w","","","","","","null","null","audio_projekt/tier1500tier.wav"
"html-keyboard-response","61","502861","0.0-10.0-1.23","wl2w","","","","","","332","q","<div></div>"
"audio-keyboard-response","62","506589","0.0-10.0-0.24","wl2w","","","","","","null","null","audio_projekt/leder1500lieder.wav"
"html-keyboard-response","63","507610","0.0-10.0-1.24","wl2w","","","","","","1020","p","<div></div>"
"audio-keyboard-response","64","511049","0.0-10.0-0.25","wl2w","","","","","","null","null","audio_projekt/bluten1500blueten.wav"
"html-keyboard-response","65","514707","0.0-10.0-1.25","wl2w","","","","","","3658","q","<div></div>"
"audio-keyboard-response","66","518349","0.0-10.0-0.26","wl2w","","","","","","null","null","audio_projekt/bluten1500bluten.wav"
"html-keyboard-response","67","518814","0.0-10.0-1.26","wl2w","","","","","","464","q","<div></div>"
"audio-keyboard-response","68","522369","0.0-10.0-0.27","wl2w","","","","","","null","null","audio_projekt/biene1500biene.wav"
"html-keyboard-response","69","522669","0.0-10.0-1.27","wl2w","","","","","","300","q","<div></div>"
"audio-keyboard-response","70","526089","0.0-10.0-0.28","wl2w","","","","","","null","null","audio_projekt/tour1500tour.wav"
"html-keyboard-response","71","526454","0.0-10.0-1.28","wl2w","","","","","","364","q","<div></div>"
"audio-keyboard-response","72","529690","0.0-10.0-0.29","wl2w","","","","","","null","null","audio_projekt/tour1500tier.wav"
"html-keyboard-response","73","529934","0.0-10.0-1.29","wl2w","","","","","","244","p","<div></div>"
"audio-keyboard-response","74","533469","0.0-10.0-0.30","wl2w","","","","","","null","null","audio_projekt/buehne1500buehne.wav"
"html-keyboard-response","75","533907","0.0-10.0-1.30","wl2w","","","","","","438","q","<div></div>"
"audio-keyboard-response","76","537910","0.0-10.0-0.31","wl2w","","","","","","null","null","audio_projekt/stuhl1500stuhl.wav"
"html-keyboard-response","77","538174","0.0-10.0-1.31","wl2w","","","","","","264","q","<div></div>"
"audio-keyboard-response","78","542409","0.0-10.0-0.32","wl2w","","","","","","null","null","audio_projekt/spulen1500spielen.wav"
"html-keyboard-response","79","542766","0.0-10.0-1.32","wl2w","","","","","","357","p","<div></div>"
"audio-keyboard-response","80","546950","0.0-10.0-0.33","wl2w","","","","","","null","null","audio_projekt/spielen1500spielen.wav"
"html-keyboard-response","81","547182","0.0-10.0-1.33","wl2w","","","","","","231","q","<div></div>"
"audio-keyboard-response","82","551190","0.0-10.0-0.34","wl2w","","","","","","null","null","audio_projekt/spuelen1500spuelen.wav"
"html-keyboard-response","83","551474","0.0-10.0-1.34","wl2w","","","","","","284","q","<div></div>"
"audio-keyboard-response","84","554710","0.0-10.0-0.35","wl2w","","","","","","null","null","audio_projekt/tuer1500tuer.wav"
"html-keyboard-response","85","555046","0.0-10.0-1.35","wl2w","","","","","","336","q","<div></div>"
"audio-keyboard-response","86","558869","0.0-10.0-0.36","wl2w","","","","","","null","null","audio_projekt/stuhl1500stiel.wav"
"html-keyboard-response","87","559166","0.0-10.0-1.36","wl2w","","","","","","297","p","<div></div>"
"audio-keyboard-response","88","563050","0.0-10.0-0.37","wl2w","","","","","","null","null","audio_projekt/siegel1500segel.wav"
"html-keyboard-response","89","563231","0.0-10.0-1.37","wl2w","","","","","","181","p","<div></div>"
"audio-keyboard-response","90","567309","0.0-10.0-0.38","wl2w","","","","","","null","null","audio_projekt/siegel1500siegel.wav"
"html-keyboard-response","91","567542","0.0-10.0-1.38","wl2w","","","","","","232","q","<div></div>"
"audio-keyboard-response","92","571089","0.0-10.0-0.39","wl2w","","","","","","null","null","audio_projekt/leder1500leder.wav"
"html-keyboard-response","93","571553","0.0-10.0-1.39","wl2w","","","","","","464","q","<div></div>"
"audio-keyboard-response","94","575169","0.0-10.0-0.40","wl2w","","","","","","null","null","audio_projekt/blueten1500blueten.wav"
"html-keyboard-response","95","575455","0.0-10.0-1.40","wl2w","","","","","","286","q","<div></div>"
"audio-keyboard-response","96","578830","0.0-10.0-0.41","wl2w","","","","","","null","null","audio_projekt/biene1500biene.wav"
"html-keyboard-response","97","579129","0.0-10.0-1.41","wl2w","","","","","","300","q","<div></div>"
"audio-keyboard-response","98","583369","0.0-10.0-0.42","wl2w","","","","","","null","null","audio_projekt/spielen1500spuelen.wav"
"html-keyboard-response","99","583418","0.0-10.0-1.42","wl2w","","","","","","49","p","<div></div>"
"audio-keyboard-response","100","587590","0.0-10.0-0.43","wl2w","","","","","","null","null","audio_projekt/spuelen1500spielen.wav"
"html-keyboard-response","101","587894","0.0-10.0-1.43","wl2w","","","","","","304","p","<div></div>"
"audio-keyboard-response","102","591709","0.0-10.0-0.44","wl2w","","","","","","null","null","audio_projekt/stuhl1500stuhl.wav"
"html-keyboard-response","103","591961","0.0-10.0-1.44","wl2w","","","","","","252","q","<div></div>"
"audio-keyboard-response","104","595329","0.0-10.0-0.45","wl2w","","","","","","null","null","audio_projekt/tour1500tuer.wav"
"html-keyboard-response","105","595998","0.0-10.0-1.45","wl2w","","","","","","668","q","<div></div>"
"audio-keyboard-response","106","599990","0.0-10.0-0.46","wl2w","","","","","","null","null","audio_projekt/spuelen1500spielen.wav"
"html-keyboard-response","107","600071","0.0-10.0-1.46","wl2w","","","","","","81","p","<div></div>"
"audio-keyboard-response","108","604309","0.0-10.0-0.47","wl2w","","","","","","null","null","audio_projekt/spielen1500spulen.wav"
"html-keyboard-response","109","604494","0.0-10.0-1.47","wl2w","","","","","","184","p","<div></div>"
"audio-keyboard-response","110","608529","0.0-10.0-0.48","wl2w","","","","","","null","null","audio_projekt/spuelen1500spulen.wav"
"html-keyboard-response","111","609465","0.0-10.0-1.48","wl2w","","","","","","936","p","<div></div>"
"audio-keyboard-response","112","613529","0.0-10.0-0.49","wl2w","","","","","","null","null","audio_projekt/segel1500segel.wav"
"html-keyboard-response","113","613955","0.0-10.0-1.49","wl2w","","","","","","426","q","<div></div>"
"audio-keyboard-response","114","617509","0.0-10.0-0.50","wl2w","","","","","","null","null","audio_projekt/biene1500buehne.wav"
"html-keyboard-response","115","617717","0.0-10.0-1.50","wl2w","","","","","","208","p","<div></div>"
"audio-keyboard-response","116","621709","0.0-10.0-0.51","wl2w","","","","","","null","null","audio_projekt/stiel1500stiel.wav"
"html-keyboard-response","117","621953","0.0-10.0-1.51","wl2w","","","","","","245","q","<div></div>"
"audio-keyboard-response","118","625189","0.0-10.0-0.52","wl2w","","","","","","null","null","audio_projekt/tuer1500tour.wav"
"html-keyboard-response","119","626027","0.0-10.0-1.52","wl2w","","","","","","838","p","<div></div>"
"audio-keyboard-response","120","629909","0.0-10.0-0.53","wl2w","","","","","","null","null","audio_projekt/siegel1500siegel.wav"
"html-keyboard-response","121","630126","0.0-10.0-1.53","wl2w","","","","","","217","q","<div></div>"
"audio-keyboard-response","122","634009","0.0-10.0-0.54","wl2w","","","","","","null","null","audio_projekt/segel1500segel.wav"
"html-keyboard-response","123","634145","0.0-10.0-1.54","wl2w","","","","","","135","q","<div></div>"
"audio-keyboard-response","124","637369","0.0-10.0-0.55","wl2w","","","","","","null","null","audio_projekt/tier1500tier.wav"
"html-keyboard-response","125","637647","0.0-10.0-1.55","wl2w","","","","","","278","q","<div></div>"
"audio-keyboard-response","126","641669","0.0-10.0-0.56","wl2w","","","","","","null","null","audio_projekt/spielen1500spuelen.wav"
"html-keyboard-response","127","641685","0.0-10.0-1.56","wl2w","","","","","","15","p","<div></div>"
"audio-keyboard-response","128","644929","0.0-10.0-0.57","wl2w","","","","","","null","null","audio_projekt/tour1500tuer.wav"
"html-keyboard-response","129","645201","0.0-10.0-1.57","wl2w","","","","","","272","q","<div></div>"
"audio-keyboard-response","130","648749","0.0-10.0-0.58","wl2w","","","","","","null","null","audio_projekt/buehne1500biene.wav"
"html-keyboard-response","131","649027","0.0-10.0-1.58","wl2w","","","","","","277","p","<div></div>"
"audio-keyboard-response","132","652890","0.0-10.0-0.59","wl2w","","","","","","null","null","audio_projekt/spulen1500spuelen.wav"
"html-keyboard-response","133","654033","0.0-10.0-1.59","wl2w","","","","","","1143","p","<div></div>"
"audio-keyboard-response","134","658090","0.0-10.0-0.60","wl2w","","","","","","null","null","audio_projekt/spielen1500spulen.wav"
"html-keyboard-response","135","658253","0.0-10.0-1.60","wl2w","","","","","","163","p","<div></div>"
"audio-keyboard-response","136","662270","0.0-10.0-0.61","wl2w","","","","","","null","null","audio_projekt/spielen1500spielen.wav"
"html-keyboard-response","137","662539","0.0-10.0-1.61","wl2w","","","","","","270","q","<div></div>"
"audio-keyboard-response","138","665909","0.0-10.0-0.62","wl2w","","","","","","null","null","audio_projekt/biene1500buehne.wav"
"html-keyboard-response","139","666198","0.0-10.0-1.62","wl2w","","","","","","288","p","<div></div>"
"audio-keyboard-response","140","670249","0.0-10.0-0.63","wl2w","","","","","","null","null","audio_projekt/spulen1500spielen.wav"
"html-keyboard-response","141","670429","0.0-10.0-1.63","wl2w","","","","","","180","p","<div></div>"
"audio-keyboard-response","142","673789","0.0-10.0-0.64","wl2w","","","","","","null","null","audio_projekt/buehne1500biene.wav"
"html-keyboard-response","143","673920","0.0-10.0-1.64","wl2w","","","","","","130","p","<div></div>"
"audio-keyboard-response","144","677969","0.0-10.0-0.65","wl2w","","","","","","null","null","audio_projekt/spulen1500spulen.wav"
"html-keyboard-response","145","678058","0.0-10.0-1.65","wl2w","","","","","","89","q","<div></div>"
"audio-keyboard-response","146","681549","0.0-10.0-0.66","wl2w","","","","","","null","null","audio_projekt/kuehl1500kuehl.wav"
"html-keyboard-response","147","681753","0.0-10.0-1.66","wl2w","","","","","","204","q","<div></div>"
"audio-keyboard-response","148","684989","0.0-10.0-0.67","wl2w","","","","","","null","null","audio_projekt/tier1500tour.wav"
"html-keyboard-response","149","685203","0.0-10.0-1.67","wl2w","","","","","","214","p","<div></div>"
"audio-keyboard-response","150","689029","0.0-10.0-0.68","wl2w","","","","","","null","null","audio_projekt/stiel1500stuhl.wav"
"html-keyboard-response","151","689094","0.0-10.0-1.68","wl2w","","","","","","65","p","<div></div>"
"audio-keyboard-response","152","692529","0.0-10.0-0.69","wl2w","","","","","","null","null","audio_projekt/bluten1500bluten.wav"
"html-keyboard-response","153","692882","0.0-10.0-1.69","wl2w","","","","","","352","q","<div></div>"
"audio-keyboard-response","154","696430","0.0-10.0-0.70","wl2w","","","","","","null","null","audio_projekt/lieder1500leder.wav"
"html-keyboard-response","155","696537","0.0-10.0-1.70","wl2w","","","","","","107","p","<div></div>"
"audio-keyboard-response","156","699969","0.0-10.0-0.71","wl2w","","","","","","null","null","audio_projekt/blueten1500blueten.wav"
"html-keyboard-response","157","700233","0.0-10.0-1.71","wl2w","","","","","","263","q","<div></div>"
"audio-keyboard-response","158","704089","0.0-10.0-0.72","wl2w","","","","","","null","null","audio_projekt/spuelen1500spulen.wav"
"html-keyboard-response","159","704253","0.0-10.0-1.72","wl2w","","","","","","164","q","<div></div>"
"audio-keyboard-response","160","708069","0.0-10.0-0.73","wl2w","","","","","","null","null","audio_projekt/stiel1500stiel.wav"
"html-keyboard-response","161","708321","0.0-10.0-1.73","wl2w","","","","","","252","q","<div></div>"
"audio-keyboard-response","162","711809","0.0-10.0-0.74","wl2w","","","","","","null","null","audio_projekt/kiel1500kuehl.wav"
"html-keyboard-response","163","711886","0.0-10.0-1.74","wl2w","","","","","","76","p","<div></div>"
"audio-keyboard-response","164","715309","0.0-10.0-0.75","wl2w","","","","","","null","null","audio_projekt/blueten1500bluten.wav"
"html-keyboard-response","165","715578","0.0-10.0-1.75","wl2w","","","","","","269","q","<div></div>"
"audio-keyboard-response","166","718810","0.0-10.0-0.76","wl2w","","","","","","null","null","audio_projekt/tour1500tour.wav"
"html-keyboard-response","167","719191","0.0-10.0-1.76","wl2w","","","","","","381","q","<div></div>"
"audio-keyboard-response","168","722709","0.0-10.0-0.77","wl2w","","","","","","null","null","audio_projekt/leder1500lieder.wav"
"html-keyboard-response","169","722910","0.0-10.0-1.77","wl2w","","","","","","200","p","<div></div>"
"audio-keyboard-response","170","726390","0.0-10.0-0.78","wl2w","","","","","","null","null","audio_projekt/kuehl1500kiel.wav"
"html-keyboard-response","171","726606","0.0-10.0-1.78","wl2w","","","","","","216","p","<div></div>"
"audio-keyboard-response","172","729970","0.0-10.0-0.79","wl2w","","","","","","null","null","audio_projekt/buehne1500buehne.wav"
"html-keyboard-response","173","730172","0.0-10.0-1.79","wl2w","","","","","","202","q","<div></div>"
"html-keyboard-response","174","791731","0.0-11.0","wl2w","","","","","","60744","q","<h2>Pause</h2><div class=""myDiv""><p>Gut gemacht! Jetzt k&ouml;nnen Sie eine kleine Pause machen.</p></div><div><img src=""pics/coffee.png"" title=""Machen Sie eine Pause..."" width=""150"" height=""150"" class=""center""></div><div style=""height:20px; width:100%""></div><p>Wenn Sie bereit sind, dr&uuml;cken Sie eine beliebige Taste, um fortzufahren.</p>"
"html-keyboard-response","175","802578","0.0-12.0","wl2w","","","","","","10846"," ","<h2>Teil 2: Identifikationsaufgabe: Vorbereitung 1</h2><div class=""myDiv""><p>In diesem Teil des Experimentes werden Sie nur ein Wort h&ouml;ren. </p><p>Anschlie&szlig;end werden zwei Bilder gezeigt. W&auml;hlen Sie das Bild aus, das das Wort darstellt.</p><p>Bevor die Aufgabe beginnt, werden die Bilder mit den entsprechenden W&ouml;rtern angezeigt. Sie werden jedes Bild zweimal sehen.</p><p>Dr&uuml;cken Sie bitte eine beliebige Taste, um die Bilder zu sehen.</p>"
"audio-button-response","176","808880","0.0-13.0-0.0-0.0","wl2w","","","","","","6022","0","audio_projekt/blueten.wav"
"audio-button-response","177","830369","0.0-13.0-0.0-0.1","wl2w","","","","","","21361","0","audio_projekt/beten1.wav"
"audio-button-response","178","834560","0.0-13.0-0.0-0.2","wl2w","","","","","","3927","0","audio_projekt/tuer.wav"
"audio-button-response","179","842832","0.0-13.0-0.0-0.3","wl2w","","","","","","8151","0","audio_projekt/bluten.wav"
"audio-button-response","180","845480","0.0-13.0-0.0-0.4","wl2w","","","","","","2532","0","audio_projekt/buehne.wav"
"audio-button-response","181","846912","0.0-13.0-0.0-0.5","wl2w","","","","","","1309","0","audio_projekt/leder.wav"
"audio-button-response","182","854737","0.0-13.0-0.0-0.6","wl2w","","","","","","7670","0","audio_projekt/bieten1.wav"
"audio-button-response","183","857273","0.0-13.0-0.0-0.7","wl2w","","","","","","2379","0","audio_projekt/spulen.wav"
"audio-button-response","184","858385","0.0-13.0-0.0-0.8","wl2w","","","","","","992","0","audio_projekt/biene.wav"
"audio-button-response","185","859593","0.0-13.0-0.0-0.9","wl2w","","","","","","1085","0","audio_projekt/segel.wav"
"audio-button-response","186","860752","0.0-13.0-0.0-0.10","wl2w","","","","","","1038","0","audio_projekt/stuhl.wav"
"audio-button-response","187","861712","0.0-13.0-0.0-0.11","wl2w","","","","","","871","0","audio_projekt/tier.wav"
"audio-button-response","188","862897","0.0-13.0-0.0-0.12","wl2w","","","","","","1063","0","audio_projekt/treffen2.wav"
"audio-button-response","189","869313","0.0-13.0-0.0-0.13","wl2w","","","","","","6293","0","audio_projekt/stiel.wav"
"audio-button-response","190","876696","0.0-13.0-0.0-0.14","wl2w","","","","","","7258","0","audio_projekt/siegel.wav"
"audio-button-response","191","882137","0.0-13.0-0.0-0.15","wl2w","","","","","","5351","0","audio_projekt/tour.wav"
"audio-button-response","192","888688","0.0-13.0-0.0-0.16","wl2w","","","","","","6433","0","audio_projekt/lieder.wav"
"audio-button-response","193","896248","0.0-13.0-0.0-0.17","wl2w","","","","","","7438","0","audio_projekt/spuelen2.wav"
"audio-button-response","194","901744","0.0-13.0-0.0-0.18","wl2w","","","","","","5372","0","audio_projekt/kiel.wav"
"audio-button-response","195","903384","0.0-13.0-0.0-0.19","wl2w","","","","","","1519","0","audio_projekt/kuehl.wav"
"audio-button-response","196","907184","0.0-13.0-0.0-0.20","wl2w","","","","","","3676","0","audio_projekt/spielen2.wav"
"audio-button-response","197","912825","0.0-13.0-0.0-0.21","wl2w","","","","","","5517","0","audio_projekt/triefen1.wav"
"audio-button-response","198","919296","0.0-13.0-0.1-0.22","wl2w","","","","","","6470","0","audio_projekt/blueten.wav"
"audio-button-response","199","921320","0.0-13.0-0.1-0.23","wl2w","","","","","","2023","0","audio_projekt/beten1.wav"
"audio-button-response","200","921927","0.0-13.0-0.1-0.24","wl2w","","","","","","607","0","audio_projekt/tuer.wav"
"audio-button-response","201","922681","0.0-13.0-0.1-0.25","wl2w","","","","","","753","0","audio_projekt/bluten.wav"
"audio-button-response","202","923728","0.0-13.0-0.1-0.26","wl2w","","","","","","1046","0","audio_projekt/buehne.wav"
"audio-button-response","203","924568","0.0-13.0-0.1-0.27","wl2w","","","","","","839","0","audio_projekt/leder.wav"
"audio-button-response","204","925336","0.0-13.0-0.1-0.28","wl2w","","","","","","768","0","audio_projekt/bieten1.wav"
"audio-button-response","205","925848","0.0-13.0-0.1-0.29","wl2w","","","","","","511","0","audio_projekt/spulen.wav"
"audio-button-response","206","926360","0.0-13.0-0.1-0.30","wl2w","","","","","","511","0","audio_projekt/biene.wav"
"audio-button-response","207","927256","0.0-13.0-0.1-0.31","wl2w","","","","","","895","0","audio_projekt/segel.wav"
"audio-button-response","208","928248","0.0-13.0-0.1-0.32","wl2w","","","","","","992","0","audio_projekt/stuhl.wav"
"audio-button-response","209","929208","0.0-13.0-0.1-0.33","wl2w","","","","","","960","0","audio_projekt/tier.wav"
"audio-button-response","210","930192","0.0-13.0-0.1-0.34","wl2w","","","","","","983","0","audio_projekt/treffen2.wav"
"audio-button-response","211","931192","0.0-13.0-0.1-0.35","wl2w","","","","","","1000","0","audio_projekt/stiel.wav"
"audio-button-response","212","932087","0.0-13.0-0.1-0.36","wl2w","","","","","","895","0","audio_projekt/siegel.wav"
"audio-button-response","213","932880","0.0-13.0-0.1-0.37","wl2w","","","","","","792","0","audio_projekt/tour.wav"
"audio-button-response","214","933936","0.0-13.0-0.1-0.38","wl2w","","","","","","1055","0","audio_projekt/lieder.wav"
"audio-button-response","215","935008","0.0-13.0-0.1-0.39","wl2w","","","","","","1072","0","audio_projekt/spuelen2.wav"
"audio-button-response","216","935711","0.0-13.0-0.1-0.40","wl2w","","","","","","703","0","audio_projekt/kiel.wav"
"audio-button-response","217","936376","0.0-13.0-0.1-0.41","wl2w","","","","","","664","0","audio_projekt/kuehl.wav"
"audio-button-response","218","937271","0.0-13.0-0.1-0.42","wl2w","","","","","","895","0","audio_projekt/spielen2.wav"
"audio-button-response","219","937992","0.0-13.0-0.1-0.43","wl2w","","","","","","720","0","audio_projekt/triefen1.wav"
"html-keyboard-response","220","943364","0.0-14.0","wl2w","","","","","","5372"," ","<h2>Teil 2: Identifikationsaufgabe: Vorbereitung 2</h2><div class=""myDiv""><p>Jetzt können Sie einen kurzen Probedurchlauf f&uuml;r diesen Teil des Experiments machen.</p><p>W&auml;hlen Sie das Bild aus, das das Wort darstellt. <ul><li>Dr&uuml;cken Sie die <b>Taste Q</b>, um das <b>linke</b> Bild auszuw&auml;hlen. Dr&uuml;cken Sie die <b>Taste P</b>, um das <b>rechte</b> Bild auszuw&auml;hlen.</li> <li>Sie haben 5 Sekunden Zeit, um sich f&uuml;r eines der Bilder zu entscheiden. </li><li>Bitte warten Sie, bis Sie <b>das ganze Wort gehört haben</b>, bevor Sie eine Taste drücken.</li></ul></p><p>Dr&uuml;cken Sie eine beliebige Taste, um den Probedurchlauf anzufangen.</p>"
"audio-keyboard-response","221","944064","0.0-15.0-0.0","wl2w","","","","","","null","null","audio_projekt/treffen2.wav"
"image-keyboard-response","222","948278","0.0-15.0-1.0","wl2w","","","","","","4213","p","pics/scaled/triefen_treffen.png"
"audio-keyboard-response","223","949664","0.0-15.0-0.1","wl2w","","","","","","null","null","audio_projekt/beten1.wav"
"image-keyboard-response","224","954680","0.0-15.0-1.1","wl2w","","","","","","null","null","pics/scaled/bieten_beten.jpg"
"html-keyboard-response","225","960241","0.0-16.0","wl2w","","","","","","4753"," ","<h2>Teil 2: Identifikationsaufgabe</h2><p>Jetzt sind Sie darauf vorbereitet, die Identifikationsaufgabe auszuführen.</p><p>Sind Sie bereit? Dann dr&uuml;cken Sie eine beliebige Taste, um anzufangen.</p>"
"audio-keyboard-response","226","961124","0.0-17.0-0.0","wl2w","","","","","","null","null","audio_projekt/spulen.wav"
"image-keyboard-response","227","963600","0.0-17.0-1.0","wl2w","","","","","","2475","q","pics/scaled/spulen_spuelen.jpg"
"audio-keyboard-response","228","965044","0.0-17.0-0.1","wl2w","","","","","","null","null","audio_projekt/lieder.wav"
"image-keyboard-response","229","965935","0.0-17.0-1.1","wl2w","","","","","","890","p","pics/scaled/lieder_leder.jpg"
"audio-keyboard-response","230","967385","0.0-17.0-0.2","wl2w","","","","","","null","null","audio_projekt/lieder.wav"
"image-keyboard-response","231","967780","0.0-17.0-1.2","wl2w","","","","","","395","p","pics/scaled/lieder_leder.jpg"
"audio-keyboard-response","232","969144","0.0-17.0-0.3","wl2w","","","","","","null","null","audio_projekt/biene.wav"
"image-keyboard-response","233","970120","0.0-17.0-1.3","wl2w","","","","","","975","q","pics/scaled/biene_buehne.png"
"audio-keyboard-response","234","971564","0.0-17.0-0.4","wl2w","","","","","","null","null","audio_projekt/lieder.wav"
"image-keyboard-response","235","972130","0.0-17.0-1.4","wl2w","","","","","","565","p","pics/scaled/lieder_leder.jpg"
"audio-keyboard-response","236","973525","0.0-17.0-0.5","wl2w","","","","","","null","null","audio_projekt/blueten.wav"
"image-keyboard-response","237","975293","0.0-17.0-1.5","wl2w","","","","","","1767","p","pics/scaled/bluten_blueten.jpg"
"audio-keyboard-response","238","977006","0.0-17.0-0.6","wl2w","","","","","","null","null","audio_projekt/spielen2.wav"
"image-keyboard-response","239","977428","0.0-17.0-1.6","wl2w","","","","","","422","p","pics/scaled/spielen_spulen.jpg"
"audio-keyboard-response","240","979125","0.0-17.0-0.7","wl2w","","","","","","null","null","audio_projekt/spuelen2.wav"
"image-keyboard-response","241","980097","0.0-17.0-1.7","wl2w","","","","","","971","p","pics/scaled/spulen_spuelen.jpg"
"audio-keyboard-response","242","981485","0.0-17.0-0.8","wl2w","","","","","","null","null","audio_projekt/blueten.wav"
"image-keyboard-response","243","983779","0.0-17.0-1.8","wl2w","","","","","","2293","p","pics/scaled/bluten_blueten.jpg"
"audio-keyboard-response","244","985145","0.0-17.0-0.9","wl2w","","","","","","null","null","audio_projekt/buehne.wav"
"image-keyboard-response","245","985716","0.0-17.0-1.9","wl2w","","","","","","570","p","pics/scaled/biene_buehne.png"
"audio-keyboard-response","246","987025","0.0-17.0-0.10","wl2w","","","","","","null","null","audio_projekt/tour.wav"
"image-keyboard-response","247","988801","0.0-17.0-1.10","wl2w","","","","","","1775","q","pics/scaled/tuer_tour.jpg"
"audio-keyboard-response","248","990485","0.0-17.0-0.11","wl2w","","","","","","null","null","audio_projekt/spuelen2.wav"
"image-keyboard-response","249","991037","0.0-17.0-1.11","wl2w","","","","","","551","p","pics/scaled/spulen_spuelen.jpg"
"audio-keyboard-response","250","992465","0.0-17.0-0.12","wl2w","","","","","","null","null","audio_projekt/kiel.wav"
"image-keyboard-response","251","992865","0.0-17.0-1.12","wl2w","","","","","","399","q","pics/scaled/kiel_kuehl.jpg"
"audio-keyboard-response","252","994565","0.0-17.0-0.13","wl2w","","","","","","null","null","audio_projekt/spulen.wav"
"image-keyboard-response","253","997214","0.0-17.0-1.13","wl2w","","","","","","2648","q","pics/scaled/spulen_spuelen.jpg"
"audio-keyboard-response","254","998805","0.0-17.0-0.14","wl2w","","","","","","null","null","audio_projekt/stiel.wav"
"image-keyboard-response","255","999801","0.0-17.0-1.14","wl2w","","","","","","995","q","pics/scaled/stiel2_stuhl.jpg"
"audio-keyboard-response","256","1001165","0.0-17.0-0.15","wl2w","","","","","","null","null","audio_projekt/buehne.wav"
"image-keyboard-response","257","1001530","0.0-17.0-1.15","wl2w","","","","","","363","p","pics/scaled/biene_buehne.png"
"audio-keyboard-response","258","1003325","0.0-17.0-0.16","wl2w","","","","","","null","null","audio_projekt/spielen.wav"
"image-keyboard-response","259","1003633","0.0-17.0-1.16","wl2w","","","","","","307","q","pics/scaled/spielen_spuelen.jpg"
"audio-keyboard-response","260","1005265","0.0-17.0-0.17","wl2w","","","","","","null","null","audio_projekt/siegel.wav"
"image-keyboard-response","261","1009203","0.0-17.0-1.17","wl2w","","","","","","3937","p","pics/scaled/siegel_segel.jpg"
"audio-keyboard-response","262","1010646","0.0-17.0-0.18","wl2w","","","","","","null","null","audio_projekt/kuehl.wav"
"image-keyboard-response","263","1011241","0.0-17.0-1.18","wl2w","","","","","","595","p","pics/scaled/kiel_kuehl.jpg"
"audio-keyboard-response","264","1012825","0.0-17.0-0.19","wl2w","","","","","","null","null","audio_projekt/stiel.wav"
"image-keyboard-response","265","1014793","0.0-17.0-1.19","wl2w","","","","","","1967","q","pics/scaled/stiel2_stuhl.jpg"
"audio-keyboard-response","266","1016485","0.0-17.0-0.20","wl2w","","","","","","null","null","audio_projekt/spuelen2.wav"
"image-keyboard-response","267","1018289","0.0-17.0-1.20","wl2w","","","","","","1803","p","pics/scaled/spielen_spuelen.jpg"
"audio-keyboard-response","268","1019605","0.0-17.0-0.21","wl2w","","","","","","null","null","audio_projekt/tour.wav"
"image-keyboard-response","269","1020547","0.0-17.0-1.21","wl2w","","","","","","941","p","pics/scaled/tier_tour.jpg"
"audio-keyboard-response","270","1021925","0.0-17.0-0.22","wl2w","","","","","","null","null","audio_projekt/buehne.wav"
"image-keyboard-response","271","1022197","0.0-17.0-1.22","wl2w","","","","","","271","p","pics/scaled/biene_buehne.png"
"audio-keyboard-response","272","1023505","0.0-17.0-0.23","wl2w","","","","","","null","null","audio_projekt/tuer.wav"
"image-keyboard-response","273","1024189","0.0-17.0-1.23","wl2w","","","","","","683","p","pics/scaled/tuer_tour.jpg"
"audio-keyboard-response","274","1025865","0.0-17.0-0.24","wl2w","","","","","","null","null","audio_projekt/spuelen2.wav"
"image-keyboard-response","275","1026281","0.0-17.0-1.24","wl2w","","","","","","415","p","pics/scaled/spielen_spuelen.jpg"
"audio-keyboard-response","276","1027745","0.0-17.0-0.25","wl2w","","","","","","null","null","audio_projekt/leder.wav"
"image-keyboard-response","277","1028173","0.0-17.0-1.25","wl2w","","","","","","428","q","pics/scaled/lieder_leder.jpg"
"audio-keyboard-response","278","1029485","0.0-17.0-0.26","wl2w","","","","","","null","null","audio_projekt/tuer.wav"
"image-keyboard-response","279","1031587","0.0-17.0-1.26","wl2w","","","","","","2101","p","pics/scaled/tuer_tour.jpg"
"audio-keyboard-response","280","1033025","0.0-17.0-0.27","wl2w","","","","","","null","null","audio_projekt/kiel.wav"
"image-keyboard-response","281","1033276","0.0-17.0-1.27","wl2w","","","","","","251","q","pics/scaled/kiel_kuehl.jpg"
"audio-keyboard-response","282","1034925","0.0-17.0-0.28","wl2w","","","","","","null","null","audio_projekt/siegel.wav"
"image-keyboard-response","283","1035425","0.0-17.0-1.28","wl2w","","","","","","499","q","pics/scaled/siegel_segel.jpg"
"audio-keyboard-response","284","1037145","0.0-17.0-0.29","wl2w","","","","","","null","null","audio_projekt/spulen.wav"
"image-keyboard-response","285","1038389","0.0-17.0-1.29","wl2w","","","","","","1243","q","pics/scaled/spielen_spulen.jpg"
"audio-keyboard-response","286","1040105","0.0-17.0-0.30","wl2w","","","","","","null","null","audio_projekt/spielen2.wav"
"image-keyboard-response","287","1040245","0.0-17.0-1.30","wl2w","","","","","","139","p","pics/scaled/spielen_spulen.jpg"
"audio-keyboard-response","288","1041945","0.0-17.0-0.31","wl2w","","","","","","null","null","audio_projekt/spielen2.wav"
"image-keyboard-response","289","1041978","0.0-17.0-1.31","wl2w","","","","","","32","p","pics/scaled/spielen_spulen.jpg"
"audio-keyboard-response","290","1043685","0.0-17.0-0.32","wl2w","","","","","","null","null","audio_projekt/spulen.wav"
"image-keyboard-response","291","1045348","0.0-17.0-1.32","wl2w","","","","","","1663","q","pics/scaled/spielen_spulen.jpg"
"audio-keyboard-response","292","1046945","0.0-17.0-0.33","wl2w","","","","","","null","null","audio_projekt/stuhl.wav"
"image-keyboard-response","293","1047300","0.0-17.0-1.33","wl2w","","","","","","355","p","pics/scaled/stiel2_stuhl.jpg"
"audio-keyboard-response","294","1048665","0.0-17.0-0.34","wl2w","","","","","","null","null","audio_projekt/biene.wav"
"image-keyboard-response","295","1048960","0.0-17.0-1.34","wl2w","","","","","","294","q","pics/scaled/biene_buehne.png"
"audio-keyboard-response","296","1050605","0.0-17.0-0.35","wl2w","","","","","","null","null","audio_projekt/segel.wav"
"image-keyboard-response","297","1050609","0.0-17.0-1.35","wl2w","","","","","","3","q","pics/scaled/siegel_segel.jpg"
"audio-keyboard-response","298","1052045","0.0-17.0-0.36","wl2w","","","","","","null","null","audio_projekt/kiel.wav"
"image-keyboard-response","299","1052242","0.0-17.0-1.36","wl2w","","","","","","197","q","pics/scaled/kiel_kuehl.jpg"
"audio-keyboard-response","300","1053685","0.0-17.0-0.37","wl2w","","","","","","null","null","audio_projekt/leder.wav"
"image-keyboard-response","301","1053949","0.0-17.0-1.37","wl2w","","","","","","263","q","pics/scaled/lieder_leder.jpg"
"audio-keyboard-response","302","1055345","0.0-17.0-0.38","wl2w","","","","","","null","null","audio_projekt/bluten.wav"
"image-keyboard-response","303","1055980","0.0-17.0-1.38","wl2w","","","","","","634","p","pics/scaled/bluten_blueten.jpg"
"audio-keyboard-response","304","1057605","0.0-17.0-0.39","wl2w","","","","","","null","null","audio_projekt/segel.wav"
"image-keyboard-response","305","1059597","0.0-17.0-1.39","wl2w","","","","","","1991","q","pics/scaled/siegel_segel.jpg"
"audio-keyboard-response","306","1061284","0.0-17.0-0.40","wl2w","","","","","","null","null","audio_projekt/spuelen2.wav"
"image-keyboard-response","307","1061392","0.0-17.0-1.40","wl2w","","","","","","107","p","pics/scaled/spielen_spuelen.jpg"
"audio-keyboard-response","308","1062705","0.0-17.0-0.41","wl2w","","","","","","null","null","audio_projekt/tour.wav"
"image-keyboard-response","309","1063111","0.0-17.0-1.41","wl2w","","","","","","405","p","pics/scaled/tier_tour.jpg"
"audio-keyboard-response","310","1064805","0.0-17.0-0.42","wl2w","","","","","","null","null","audio_projekt/spuelen2.wav"
"image-keyboard-response","311","1065368","0.0-17.0-1.42","wl2w","","","","","","563","p","pics/scaled/spulen_spuelen.jpg"
"audio-keyboard-response","312","1066684","0.0-17.0-0.43","wl2w","","","","","","null","null","audio_projekt/tier.wav"
"image-keyboard-response","313","1067688","0.0-17.0-1.43","wl2w","","","","","","1003","q","pics/scaled/tier_tour.jpg"
"audio-keyboard-response","314","1069325","0.0-17.0-0.44","wl2w","","","","","","null","null","audio_projekt/siegel.wav"
"image-keyboard-response","315","1070900","0.0-17.0-1.44","wl2w","","","","","","1575","p","pics/scaled/siegel_segel.jpg"
"audio-keyboard-response","316","1072345","0.0-17.0-0.45","wl2w","","","","","","null","null","audio_projekt/leder.wav"
"image-keyboard-response","317","1072748","0.0-17.0-1.45","wl2w","","","","","","403","q","pics/scaled/lieder_leder.jpg"
"audio-keyboard-response","318","1074465","0.0-17.0-0.46","wl2w","","","","","","null","null","audio_projekt/spulen.wav"
"image-keyboard-response","319","1074758","0.0-17.0-1.46","wl2w","","","","","","292","q","pics/scaled/spielen_spulen.jpg"
"audio-keyboard-response","320","1076085","0.0-17.0-0.47","wl2w","","","","","","null","null","audio_projekt/tuer.wav"
"image-keyboard-response","321","1076468","0.0-17.0-1.47","wl2w","","","","","","383","p","pics/scaled/tuer_tour.jpg"
"audio-keyboard-response","322","1078165","0.0-17.0-0.48","wl2w","","","","","","null","null","audio_projekt/spielen.wav"
"image-keyboard-response","323","1078436","0.0-17.0-1.48","wl2w","","","","","","271","q","pics/scaled/spielen_spuelen.jpg"
"audio-keyboard-response","324","1080025","0.0-17.0-0.49","wl2w","","","","","","null","null","audio_projekt/stiel.wav"
"image-keyboard-response","325","1080636","0.0-17.0-1.49","wl2w","","","","","","611","q","pics/scaled/stiel2_stuhl.jpg"
"audio-keyboard-response","326","1082325","0.0-17.0-0.50","wl2w","","","","","","null","null","audio_projekt/spielen.wav"
"image-keyboard-response","327","1082584","0.0-17.0-1.50","wl2w","","","","","","259","q","pics/scaled/spielen_spuelen.jpg"
"audio-keyboard-response","328","1084185","0.0-17.0-0.51","wl2w","","","","","","null","null","audio_projekt/stuhl.wav"
"image-keyboard-response","329","1084420","0.0-17.0-1.51","wl2w","","","","","","235","p","pics/scaled/stiel2_stuhl.jpg"
"audio-keyboard-response","330","1085805","0.0-17.0-0.52","wl2w","","","","","","null","null","audio_projekt/bluten.wav"
"image-keyboard-response","331","1086309","0.0-17.0-1.52","wl2w","","","","","","504","p","pics/scaled/bluten_blueten.jpg"
"audio-keyboard-response","332","1087624","0.0-17.0-0.53","wl2w","","","","","","null","null","audio_projekt/tour.wav"
"image-keyboard-response","333","1088460","0.0-17.0-1.53","wl2w","","","","","","835","p","pics/scaled/tier_tour.jpg"
"audio-keyboard-response","334","1089785","0.0-17.0-0.54","wl2w","","","","","","null","null","audio_projekt/tier.wav"
"image-keyboard-response","335","1090284","0.0-17.0-1.54","wl2w","","","","","","499","q","pics/scaled/tier_tour.jpg"
"audio-keyboard-response","336","1091705","0.0-17.0-0.55","wl2w","","","","","","null","null","audio_projekt/kuehl.wav"
"image-keyboard-response","337","1092068","0.0-17.0-1.55","wl2w","","","","","","362","p","pics/scaled/kiel_kuehl.jpg"
"audio-keyboard-response","338","1093366","0.0-17.0-0.56","wl2w","","","","","","null","null","audio_projekt/tour.wav"
"image-keyboard-response","339","1093773","0.0-17.0-1.56","wl2w","","","","","","406","p","pics/scaled/tuer_tour.jpg"
"audio-keyboard-response","340","1095485","0.0-17.0-0.57","wl2w","","","","","","null","null","audio_projekt/spulen.wav"
"image-keyboard-response","341","1097502","0.0-17.0-1.57","wl2w","","","","","","2017","q","pics/scaled/spulen_spuelen.jpg"
"audio-keyboard-response","342","1098805","0.0-17.0-0.58","wl2w","","","","","","null","null","audio_projekt/tier.wav"
"image-keyboard-response","343","1099297","0.0-17.0-1.58","wl2w","","","","","","492","q","pics/scaled/tier_tour.jpg"
"audio-keyboard-response","344","1100865","0.0-17.0-0.59","wl2w","","","","","","null","null","audio_projekt/stuhl.wav"
"image-keyboard-response","345","1101008","0.0-17.0-1.59","wl2w","","","","","","143","p","pics/scaled/stiel2_stuhl.jpg"
"audio-keyboard-response","346","1102305","0.0-17.0-0.60","wl2w","","","","","","null","null","audio_projekt/tour.wav"
"image-keyboard-response","347","1103185","0.0-17.0-1.60","wl2w","","","","","","879","q","pics/scaled/tuer_tour.jpg"
"audio-keyboard-response","348","1104605","0.0-17.0-0.61","wl2w","","","","","","null","null","audio_projekt/kuehl.wav"
"image-keyboard-response","349","1104745","0.0-17.0-1.61","wl2w","","","","","","139","p","pics/scaled/kiel_kuehl.jpg"
"audio-keyboard-response","350","1106125","0.0-17.0-0.62","wl2w","","","","","","null","null","audio_projekt/biene.wav"
"image-keyboard-response","351","1106393","0.0-17.0-1.62","wl2w","","","","","","267","q","pics/scaled/biene_buehne.png"
"audio-keyboard-response","352","1107785","0.0-17.0-0.63","wl2w","","","","","","null","null","audio_projekt/bluten.wav"
"image-keyboard-response","353","1108582","0.0-17.0-1.63","wl2w","","","","","","796","p","pics/scaled/bluten_blueten.jpg"
"audio-keyboard-response","354","1109985","0.0-17.0-0.64","wl2w","","","","","","null","null","audio_projekt/blueten.wav"
"image-keyboard-response","355","1110836","0.0-17.0-1.64","wl2w","","","","","","851","q","pics/scaled/bluten_blueten.jpg"
"audio-keyboard-response","356","1112485","0.0-17.0-0.65","wl2w","","","","","","null","null","audio_projekt/segel.wav"
"image-keyboard-response","357","1113389","0.0-17.0-1.65","wl2w","","","","","","903","q","pics/scaled/siegel_segel.jpg"
