"trial_type","trial_index","time_elapsed","internal_node_id","subject","success","timeout","failed_images","failed_audio","failed_video","rt","response","stimulus"
"pavlovia","0","794","0.0-0.0","rkoq","","","","","","","",""
"preload","1","795","0.0-1.0","rkoq","true","false","[]","[]","[]","","",""
"survey-html-form","2","17117","0.0-2.0","rkoq","","","","","","16320","{""code"":""6672d80db5976c83ec699f3a""}",""
"html-button-response","3","103429","0.0-3.0","rkoq","","","","","","86309","0","<h2>Willkommen zum Experiment!</h2><div class=""myDiv""><p>Vielen Dank f&uuml;r Ihr Interesse an dieser Studie. Wir bitten Sie <strong>Kopfh&ouml;rer</strong> daf&uuml;r zu verwenden.</p></div><div><img src=""pics/headphones.png"" title=""Earbuds are also fine"" width=""250"" height=""200"" class=""center""></div><div class=""myDiv""><p>Das Experiment besteht aus zwei Teilen:</p> <ol> <li>Eine <strong>Unterscheidungsaufgabe,</strong> in der Sie zwei W&ouml;rter h&ouml;ren. Im Anschluss sollen Sie feststellen, ob diese W&ouml;rter gleich oder unterschiedlich sind;</li><li>Eine <strong>Identifikationsaufgabe,</strong> in der Sie nur ein Wort h&ouml;ren, wobei Ihnen aber zwei Bilder gezeigt werden. Ihre Aufgabe ist es, dasjenige Bild auszuw&auml;hlen, das das geh&ouml;rte Wort darstellt.</li> </ol><p>Wir bitten Sie um Ihre Zustimmung, bevor wir Ihre Daten sammeln und verwenden. Bitte klicken Sie auf den ""Start""-Button, um Ihre Zustimmung zu geben. Anschlie&szlig;end werden wir ein paar Fragen zu Ihren Sprachkenntnissen stellen. Danach k&ouml;nnen Sie das Experiment starten. </p></div>"
"survey-html-form","4","117905","0.0-4.0","rkoq","","","","","","14474","{""zustimmung"":""on""}",""
"survey-html-form","5","252004","0.0-5.0","rkoq","","","","","","134075","{""native"":""Englisch"",""AOL"":""12"",""LearnType3"":""lgeschool"",""LearnType4"":""uni"",""LearnType6"":""immersion"",""which"":""ich bin in ein deutschsprachiges Land gezogen"",""AOA"":""18"",""timespent"":""2 Jahre""}",""
"audio-button-response","6","261133","0.0-6.0-0.0","rkoq","","","","","","8840","0","audio_projekt/treffen1.wav"
"audio-button-response","7","265691","0.0-6.1-0.1","rkoq","","","","","","4557","1","audio_projekt/treffen1.wav"
"html-keyboard-response","8","294109","0.0-7.0","rkoq","","","","","","28416","p","<h2>Teil 1: Unterscheidungsaufgabe</h2><div class=""myDiv""><p>In diesem Teil des Experimentes werden Sie im Abstand von 1.5 Sekunden <b>zwei W&ouml;rter</b> h&ouml;ren.</p><ul><li>Ihre Aufgabe ist es, festzustellen, ob diese W&ouml;rter <b>gleich oder unterschiedlich</b> sind. Wenn es einen Unterschied gibt, besteht dieser nur aus einem Vokal. </li> <li>Dr&uuml;cken Sie die <b>Taste Q</b>, wenn die W&ouml;rter gleich sind. Dr&uuml;cken Sie die <b>Taste P</b>, wenn die W&ouml;rter unterschiedlich sind.</li><li>Bitte warten Sie, bis Sie <b>beide Wörter gehört haben</b>, bevor Sie eine Taste drücken. Aber Achtung: Sie haben nur <b>5 Sekunden</b>, um eine Option auszuw&auml;hlen! &Uuml;berlegen Sie daher bitte nicht zu lange.</li></ul><br><p>Dr&uuml;cken Sie eine beliebige Taste, um ein paar Testversuche zu machen.</p></ul></div>"
"audio-keyboard-response","9","297344","0.0-8.0-0.0","rkoq","","","","","","null","null","audio_projekt/treffen1500triefen.wav"
"html-keyboard-response","10","298519","0.0-8.0-1.0","rkoq","","","","","","1174","p","<div></div>"
"audio-keyboard-response","11","302367","0.0-8.0-0.1","rkoq","","","","","","null","null","audio_projekt/treffen1500treffen.wav"
"html-keyboard-response","12","302979","0.0-8.0-1.1","rkoq","","","","","","611","q","<div></div>"
"html-keyboard-response","13","309122","0.0-9.0","rkoq","","","","","","5327","p","<p>Gut! Jetzt f&auml;ngt der erste Teil des Experiments an. Dieser Teil dauert ca. 10 Minuten.</p><br><p>Bitte dr&uuml;cken Sie eine beliebige Taste, um fortzufahren.<div style=""height:30px; width:100%""></div>"
"audio-keyboard-response","14","312338","0.0-10.0-0.0","rkoq","","","","","","null","null","audio_projekt/segel1500siegel.wav"
"html-keyboard-response","15","313338","0.0-10.0-1.0","rkoq","","","","","","1000","p","<div></div>"
"audio-keyboard-response","16","317383","0.0-10.0-0.1","rkoq","","","","","","null","null","audio_projekt/siegel1500siegel.wav"
"html-keyboard-response","17","317791","0.0-10.0-1.1","rkoq","","","","","","407","q","<div></div>"
"audio-keyboard-response","18","321429","0.0-10.0-0.2","rkoq","","","","","","null","null","audio_projekt/kiel1500kuehl.wav"
"html-keyboard-response","19","322061","0.0-10.0-1.2","rkoq","","","","","","631","p","<div></div>"
"audio-keyboard-response","20","326246","0.0-10.0-0.3","rkoq","","","","","","null","null","audio_projekt/spuelen1500spuelen.wav"
"html-keyboard-response","21","326551","0.0-10.0-1.3","rkoq","","","","","","300","q","<div></div>"
"audio-keyboard-response","22","330108","0.0-10.0-0.4","rkoq","","","","","","null","null","audio_projekt/blueten1500blueten.wav"
"html-keyboard-response","23","330941","0.0-10.0-1.4","rkoq","","","","","","831","q","<div></div>"
"audio-keyboard-response","24","334571","0.0-10.0-0.5","rkoq","","","","","","null","null","audio_projekt/kuehl1500kiel.wav"
"html-keyboard-response","25","334999","0.0-10.0-1.5","rkoq","","","","","","427","p","<div></div>"
"audio-keyboard-response","26","339190","0.0-10.0-0.6","rkoq","","","","","","null","null","audio_projekt/spielen1500spulen.wav"
"html-keyboard-response","27","339531","0.0-10.0-1.6","rkoq","","","","","","338","p","<div></div>"
"audio-keyboard-response","28","342894","0.0-10.0-0.7","rkoq","","","","","","null","null","audio_projekt/tuer1500tuer.wav"
"html-keyboard-response","29","343341","0.0-10.0-1.7","rkoq","","","","","","447","q","<div></div>"
"audio-keyboard-response","30","346805","0.0-10.0-0.8","rkoq","","","","","","null","null","audio_projekt/tour1500tier.wav"
"html-keyboard-response","31","347422","0.0-10.0-1.8","rkoq","","","","","","617","p","<div></div>"
"audio-keyboard-response","32","351469","0.0-10.0-0.9","rkoq","","","","","","null","null","audio_projekt/spulen1500spuelen.wav"
"html-keyboard-response","33","352049","0.0-10.0-1.9","rkoq","","","","","","579","p","<div></div>"
"audio-keyboard-response","34","355623","0.0-10.0-0.10","rkoq","","","","","","null","null","audio_projekt/bluten1500bluten.wav"
"html-keyboard-response","35","355886","0.0-10.0-1.10","rkoq","","","","","","262","q","<div></div>"
"audio-keyboard-response","36","359459","0.0-10.0-0.11","rkoq","","","","","","null","null","audio_projekt/blueten1500bluten.wav"
"html-keyboard-response","37","360151","0.0-10.0-1.11","rkoq","","","","","","693","p","<div></div>"
"audio-keyboard-response","38","364093","0.0-10.0-0.12","rkoq","","","","","","null","null","audio_projekt/stuhl1500stiel.wav"
"html-keyboard-response","39","364607","0.0-10.0-1.12","rkoq","","","","","","514","p","<div></div>"
"audio-keyboard-response","40","368059","0.0-10.0-0.13","rkoq","","","","","","null","null","audio_projekt/blueten1500bluten.wav"
"html-keyboard-response","41","368553","0.0-10.0-1.13","rkoq","","","","","","493","p","<div></div>"
"audio-keyboard-response","42","371960","0.0-10.0-0.14","rkoq","","","","","","null","null","audio_projekt/tier1500tour.wav"
"html-keyboard-response","43","372819","0.0-10.0-1.14","rkoq","","","","","","857","p","<div></div>"
"audio-keyboard-response","44","376791","0.0-10.0-0.15","rkoq","","","","","","null","null","audio_projekt/stuhl1500stuhl.wav"
"html-keyboard-response","45","377154","0.0-10.0-1.15","rkoq","","","","","","362","q","<div></div>"
"audio-keyboard-response","46","380523","0.0-10.0-0.16","rkoq","","","","","","null","null","audio_projekt/tier1500tier.wav"
"html-keyboard-response","47","380897","0.0-10.0-1.16","rkoq","","","","","","374","q","<div></div>"
"audio-keyboard-response","48","384258","0.0-10.0-0.17","rkoq","","","","","","null","null","audio_projekt/tuer1500tour.wav"
"html-keyboard-response","49","384599","0.0-10.0-1.17","rkoq","","","","","","341","p","<div></div>"
"audio-keyboard-response","50","388212","0.0-10.0-0.18","rkoq","","","","","","null","null","audio_projekt/kiel1500kiel.wav"
"html-keyboard-response","51","388613","0.0-10.0-1.18","rkoq","","","","","","399","q","<div></div>"
"audio-keyboard-response","52","392118","0.0-10.0-0.19","rkoq","","","","","","null","null","audio_projekt/tour1500tuer.wav"
"html-keyboard-response","53","392518","0.0-10.0-1.19","rkoq","","","","","","399","p","<div></div>"
"audio-keyboard-response","54","396462","0.0-10.0-0.20","rkoq","","","","","","null","null","audio_projekt/stiel1500stuhl.wav"
"html-keyboard-response","55","396605","0.0-10.0-1.20","rkoq","","","","","","143","p","<div></div>"
"audio-keyboard-response","56","400757","0.0-10.0-0.21","rkoq","","","","","","null","null","audio_projekt/spielen1500spuelen.wav"
"html-keyboard-response","57","401184","0.0-10.0-1.21","rkoq","","","","","","427","p","<div></div>"
"audio-keyboard-response","58","404607","0.0-10.0-0.22","rkoq","","","","","","null","null","audio_projekt/blueten1500blueten.wav"
"html-keyboard-response","59","404988","0.0-10.0-1.22","rkoq","","","","","","381","q","<div></div>"
"audio-keyboard-response","60","408621","0.0-10.0-0.23","rkoq","","","","","","null","null","audio_projekt/lieder1500lieder.wav"
"html-keyboard-response","61","408791","0.0-10.0-1.23","rkoq","","","","","","170","q","<div></div>"
"audio-keyboard-response","62","412143","0.0-10.0-0.24","rkoq","","","","","","null","null","audio_projekt/tour1500tour.wav"
"html-keyboard-response","63","412581","0.0-10.0-1.24","rkoq","","","","","","437","q","<div></div>"
"audio-keyboard-response","64","416236","0.0-10.0-0.25","rkoq","","","","","","null","null","audio_projekt/leder1500leder.wav"
"html-keyboard-response","65","416472","0.0-10.0-1.25","rkoq","","","","","","235","q","<div></div>"
"audio-keyboard-response","66","419738","0.0-10.0-0.26","rkoq","","","","","","null","null","audio_projekt/tuer1500tour.wav"
"html-keyboard-response","67","420427","0.0-10.0-1.26","rkoq","","","","","","689","p","<div></div>"
"audio-keyboard-response","68","424364","0.0-10.0-0.27","rkoq","","","","","","null","null","audio_projekt/stiel1500stiel.wav"
"html-keyboard-response","69","424642","0.0-10.0-1.27","rkoq","","","","","","279","q","<div></div>"
"audio-keyboard-response","70","428838","0.0-10.0-0.28","rkoq","","","","","","null","null","audio_projekt/spulen1500spielen.wav"
"html-keyboard-response","71","429099","0.0-10.0-1.28","rkoq","","","","","","262","p","<div></div>"
"audio-keyboard-response","72","432749","0.0-10.0-0.29","rkoq","","","","","","null","null","audio_projekt/leder1500lieder.wav"
"html-keyboard-response","73","433524","0.0-10.0-1.29","rkoq","","","","","","775","p","<div></div>"
"audio-keyboard-response","74","437022","0.0-10.0-0.30","rkoq","","","","","","null","null","audio_projekt/buehne1500buehne.wav"
"html-keyboard-response","75","437318","0.0-10.0-1.30","rkoq","","","","","","293","q","<div></div>"
"audio-keyboard-response","76","441357","0.0-10.0-0.31","rkoq","","","","","","null","null","audio_projekt/spulen1500spielen.wav"
"html-keyboard-response","77","441433","0.0-10.0-1.31","rkoq","","","","","","75","p","<div></div>"
"audio-keyboard-response","78","445572","0.0-10.0-0.32","rkoq","","","","","","null","null","audio_projekt/spuelen1500spielen.wav"
"html-keyboard-response","79","445681","0.0-10.0-1.32","rkoq","","","","","","107","p","<div></div>"
"audio-keyboard-response","80","449209","0.0-10.0-0.33","rkoq","","","","","","null","null","audio_projekt/leder1500lieder.wav"
"html-keyboard-response","81","449739","0.0-10.0-1.33","rkoq","","","","","","530","p","<div></div>"
"audio-keyboard-response","82","452979","0.0-10.0-0.34","rkoq","","","","","","null","null","audio_projekt/tier1500tour.wav"
"html-keyboard-response","83","453459","0.0-10.0-1.34","rkoq","","","","","","479","p","<div></div>"
"audio-keyboard-response","84","456953","0.0-10.0-0.35","rkoq","","","","","","null","null","audio_projekt/kiel1500kiel.wav"
"html-keyboard-response","85","457182","0.0-10.0-1.35","rkoq","","","","","","229","q","<div></div>"
"audio-keyboard-response","86","460543","0.0-10.0-0.36","rkoq","","","","","","null","null","audio_projekt/buehne1500buehne.wav"
"html-keyboard-response","87","460937","0.0-10.0-1.36","rkoq","","","","","","393","q","<div></div>"
"audio-keyboard-response","88","465040","0.0-10.0-0.37","rkoq","","","","","","null","null","audio_projekt/segel1500segel.wav"
"html-keyboard-response","89","465107","0.0-10.0-1.37","rkoq","","","","","","66","q","<div></div>"
"audio-keyboard-response","90","468605","0.0-10.0-0.38","rkoq","","","","","","null","null","audio_projekt/biene1500biene.wav"
"html-keyboard-response","91","469213","0.0-10.0-1.38","rkoq","","","","","","607","q","<div></div>"
"audio-keyboard-response","92","473108","0.0-10.0-0.39","rkoq","","","","","","null","null","audio_projekt/segel1500siegel.wav"
"html-keyboard-response","93","473312","0.0-10.0-1.39","rkoq","","","","","","204","p","<div></div>"
"audio-keyboard-response","94","477491","0.0-10.0-0.40","rkoq","","","","","","null","null","audio_projekt/spielen1500spielen.wav"
"html-keyboard-response","95","477917","0.0-10.0-1.40","rkoq","","","","","","427","q","<div></div>"
"audio-keyboard-response","96","481399","0.0-10.0-0.41","rkoq","","","","","","null","null","audio_projekt/kuehl1500kiel.wav"
"html-keyboard-response","97","481747","0.0-10.0-1.41","rkoq","","","","","","348","p","<div></div>"
"audio-keyboard-response","98","485733","0.0-10.0-0.42","rkoq","","","","","","null","null","audio_projekt/spuelen1500spulen.wav"
"html-keyboard-response","99","485914","0.0-10.0-1.42","rkoq","","","","","","181","p","<div></div>"
"audio-keyboard-response","100","489507","0.0-10.0-0.43","rkoq","","","","","","null","null","audio_projekt/leder1500leder.wav"
"html-keyboard-response","101","489817","0.0-10.0-1.43","rkoq","","","","","","309","q","<div></div>"
"audio-keyboard-response","102","493704","0.0-10.0-0.44","rkoq","","","","","","null","null","audio_projekt/siegel1500siegel.wav"
"html-keyboard-response","103","493875","0.0-10.0-1.44","rkoq","","","","","","170","q","<div></div>"
"audio-keyboard-response","104","497726","0.0-10.0-0.45","rkoq","","","","","","null","null","audio_projekt/spulen1500spuelen.wav"
"html-keyboard-response","105","497919","0.0-10.0-1.45","rkoq","","","","","","192","p","<div></div>"
"audio-keyboard-response","106","501938","0.0-10.0-0.46","rkoq","","","","","","null","null","audio_projekt/spuelen1500spielen.wav"
"html-keyboard-response","107","502258","0.0-10.0-1.46","rkoq","","","","","","319","p","<div></div>"
"audio-keyboard-response","108","506158","0.0-10.0-0.47","rkoq","","","","","","null","null","audio_projekt/segel1500segel.wav"
"html-keyboard-response","109","506208","0.0-10.0-1.47","rkoq","","","","","","50","q","<div></div>"
"audio-keyboard-response","110","509703","0.0-10.0-0.48","rkoq","","","","","","null","null","audio_projekt/buehne1500biene.wav"
"html-keyboard-response","111","510009","0.0-10.0-1.48","rkoq","","","","","","304","p","<div></div>"
"audio-keyboard-response","112","513397","0.0-10.0-0.49","rkoq","","","","","","null","null","audio_projekt/buehne1500biene.wav"
"html-keyboard-response","113","513634","0.0-10.0-1.49","rkoq","","","","","","237","p","<div></div>"
"audio-keyboard-response","114","517719","0.0-10.0-0.50","rkoq","","","","","","null","null","audio_projekt/spielen1500spielen.wav"
"html-keyboard-response","115","518108","0.0-10.0-1.50","rkoq","","","","","","388","q","<div></div>"
"audio-keyboard-response","116","521352","0.0-10.0-0.51","rkoq","","","","","","null","null","audio_projekt/tour1500tier.wav"
"html-keyboard-response","117","521857","0.0-10.0-1.51","rkoq","","","","","","506","p","<div></div>"
"audio-keyboard-response","118","525667","0.0-10.0-0.52","rkoq","","","","","","null","null","audio_projekt/stuhl1500stiel.wav"
"html-keyboard-response","119","525826","0.0-10.0-1.52","rkoq","","","","","","160","p","<div></div>"
"audio-keyboard-response","120","529836","0.0-10.0-0.53","rkoq","","","","","","null","null","audio_projekt/spielen1500spuelen.wav"
"html-keyboard-response","121","530226","0.0-10.0-1.53","rkoq","","","","","","390","p","<div></div>"
"audio-keyboard-response","122","533724","0.0-10.0-0.54","rkoq","","","","","","null","null","audio_projekt/biene1500buehne.wav"
"html-keyboard-response","123","534271","0.0-10.0-1.54","rkoq","","","","","","546","p","<div></div>"
"audio-keyboard-response","124","537511","0.0-10.0-0.55","rkoq","","","","","","null","null","audio_projekt/tier1500tier.wav"
"html-keyboard-response","125","537793","0.0-10.0-1.55","rkoq","","","","","","281","q","<div></div>"
"audio-keyboard-response","126","541826","0.0-10.0-0.56","rkoq","","","","","","null","null","audio_projekt/siegel1500segel.wav"
"html-keyboard-response","127","541858","0.0-10.0-1.56","rkoq","","","","","","31","p","<div></div>"
"audio-keyboard-response","128","545902","0.0-10.0-0.57","rkoq","","","","","","null","null","audio_projekt/spielen1500spulen.wav"
"html-keyboard-response","129","546015","0.0-10.0-1.57","rkoq","","","","","","112","p","<div></div>"
"audio-keyboard-response","130","549926","0.0-10.0-0.58","rkoq","","","","","","null","null","audio_projekt/spuelen1500spulen.wav"
"html-keyboard-response","131","550203","0.0-10.0-1.58","rkoq","","","","","","276","p","<div></div>"
"audio-keyboard-response","132","553738","0.0-10.0-0.59","rkoq","","","","","","null","null","audio_projekt/lieder1500lieder.wav"
"html-keyboard-response","133","554000","0.0-10.0-1.59","rkoq","","","","","","261","q","<div></div>"
"audio-keyboard-response","134","558130","0.0-10.0-0.60","rkoq","","","","","","null","null","audio_projekt/spulen1500spulen.wav"
"html-keyboard-response","135","558138","0.0-10.0-1.60","rkoq","","","","","","7","q","<div></div>"
"audio-keyboard-response","136","561997","0.0-10.0-0.61","rkoq","","","","","","null","null","audio_projekt/stuhl1500stuhl.wav"
"html-keyboard-response","137","562160","0.0-10.0-1.61","rkoq","","","","","","163","q","<div></div>"
"audio-keyboard-response","138","565415","0.0-10.0-0.62","rkoq","","","","","","null","null","audio_projekt/tour1500tour.wav"
"html-keyboard-response","139","565905","0.0-10.0-1.62","rkoq","","","","","","489","q","<div></div>"
"audio-keyboard-response","140","569476","0.0-10.0-0.63","rkoq","","","","","","null","null","audio_projekt/bluten1500blueten.wav"
"html-keyboard-response","141","569747","0.0-10.0-1.63","rkoq","","","","","","270","p","<div></div>"
"audio-keyboard-response","142","573773","0.0-10.0-0.64","rkoq","","","","","","null","null","audio_projekt/spuelen1500spuelen.wav"
"html-keyboard-response","143","573774","0.0-10.0-1.64","rkoq","","","","","","1","q","<div></div>"
"audio-keyboard-response","144","577031","0.0-10.0-0.65","rkoq","","","","","","null","null","audio_projekt/tuer1500tuer.wav"
"html-keyboard-response","145","577406","0.0-10.0-1.65","rkoq","","","","","","372","q","<div></div>"
"audio-keyboard-response","146","581257","0.0-10.0-0.66","rkoq","","","","","","null","null","audio_projekt/stiel1500stuhl.wav"
"html-keyboard-response","147","581370","0.0-10.0-1.66","rkoq","","","","","","112","p","<div></div>"
"audio-keyboard-response","148","584972","0.0-10.0-0.67","rkoq","","","","","","null","null","audio_projekt/kuehl1500kuehl.wav"
"html-keyboard-response","149","585136","0.0-10.0-1.67","rkoq","","","","","","162","q","<div></div>"
"audio-keyboard-response","150","588749","0.0-10.0-0.68","rkoq","","","","","","null","null","audio_projekt/lieder1500leder.wav"
"html-keyboard-response","151","588876","0.0-10.0-1.68","rkoq","","","","","","127","p","<div></div>"
"audio-keyboard-response","152","592117","0.0-10.0-0.69","rkoq","","","","","","null","null","audio_projekt/tour1500tuer.wav"
"html-keyboard-response","153","592526","0.0-10.0-1.69","rkoq","","","","","","406","p","<div></div>"
"audio-keyboard-response","154","596018","0.0-10.0-0.70","rkoq","","","","","","null","null","audio_projekt/bluten1500bluten.wav"
"html-keyboard-response","155","596208","0.0-10.0-1.70","rkoq","","","","","","189","q","<div></div>"
"audio-keyboard-response","156","600011","0.0-10.0-0.71","rkoq","","","","","","null","null","audio_projekt/stiel1500stiel.wav"
"html-keyboard-response","157","600380","0.0-10.0-1.71","rkoq","","","","","","367","q","<div></div>"
"audio-keyboard-response","158","603929","0.0-10.0-0.72","rkoq","","","","","","null","null","audio_projekt/lieder1500leder.wav"
"html-keyboard-response","159","604172","0.0-10.0-1.72","rkoq","","","","","","243","p","<div></div>"
"audio-keyboard-response","160","608093","0.0-10.0-0.73","rkoq","","","","","","null","null","audio_projekt/siegel1500segel.wav"
"html-keyboard-response","161","608103","0.0-10.0-1.73","rkoq","","","","","","8","p","<div></div>"
"audio-keyboard-response","162","611562","0.0-10.0-0.74","rkoq","","","","","","null","null","audio_projekt/bluten1500blueten.wav"
"html-keyboard-response","163","612093","0.0-10.0-1.74","rkoq","","","","","","529","p","<div></div>"
"audio-keyboard-response","164","616155","0.0-10.0-0.75","rkoq","","","","","","null","null","audio_projekt/spulen1500spulen.wav"
"html-keyboard-response","165","616285","0.0-10.0-1.75","rkoq","","","","","","128","q","<div></div>"
"audio-keyboard-response","166","619816","0.0-10.0-0.76","rkoq","","","","","","null","null","audio_projekt/kiel1500kuehl.wav"
"html-keyboard-response","167","620094","0.0-10.0-1.76","rkoq","","","","","","274","p","<div></div>"
"audio-keyboard-response","168","623582","0.0-10.0-0.77","rkoq","","","","","","null","null","audio_projekt/kuehl1500kuehl.wav"
"html-keyboard-response","169","623957","0.0-10.0-1.77","rkoq","","","","","","374","q","<div></div>"
"audio-keyboard-response","170","627358","0.0-10.0-0.78","rkoq","","","","","","null","null","audio_projekt/biene1500biene.wav"
"html-keyboard-response","171","627990","0.0-10.0-1.78","rkoq","","","","","","632","q","<div></div>"
"audio-keyboard-response","172","631409","0.0-10.0-0.79","rkoq","","","","","","null","null","audio_projekt/biene1500buehne.wav"
"html-keyboard-response","173","632204","0.0-10.0-1.79","rkoq","","","","","","795","p","<div></div>"
"html-keyboard-response","174","740516","0.0-11.0","rkoq","","","","","","107509","p","<h2>Pause</h2><div class=""myDiv""><p>Gut gemacht! Jetzt k&ouml;nnen Sie eine kleine Pause machen.</p></div><div><img src=""pics/coffee.png"" title=""Machen Sie eine Pause..."" width=""150"" height=""150"" class=""center""></div><div style=""height:20px; width:100%""></div><p>Wenn Sie bereit sind, dr&uuml;cken Sie eine beliebige Taste, um fortzufahren.</p>"
"html-keyboard-response","175","756718","0.0-12.0","rkoq","","","","","","16201","p","<h2>Teil 2: Identifikationsaufgabe: Vorbereitung 1</h2><div class=""myDiv""><p>In diesem Teil des Experimentes werden Sie nur ein Wort h&ouml;ren. </p><p>Anschlie&szlig;end werden zwei Bilder gezeigt. W&auml;hlen Sie das Bild aus, das das Wort darstellt.</p><p>Bevor die Aufgabe beginnt, werden die Bilder mit den entsprechenden W&ouml;rtern angezeigt. Sie werden jedes Bild zweimal sehen.</p><p>Dr&uuml;cken Sie bitte eine beliebige Taste, um die Bilder zu sehen.</p>"
"audio-button-response","176","762377","0.0-13.0-0.0-0.0","rkoq","","","","","","5566","0","audio_projekt/blueten.wav"
"audio-button-response","177","765544","0.0-13.0-0.0-0.1","rkoq","","","","","","3086","0","audio_projekt/beten1.wav"
"audio-button-response","178","766886","0.0-13.0-0.0-0.2","rkoq","","","","","","1282","0","audio_projekt/tuer.wav"
"audio-button-response","179","771439","0.0-13.0-0.0-0.3","rkoq","","","","","","4472","0","audio_projekt/bluten.wav"
"audio-button-response","180","775016","0.0-13.0-0.0-0.4","rkoq","","","","","","3499","0","audio_projekt/buehne.wav"
"audio-button-response","181","777267","0.0-13.0-0.0-0.5","rkoq","","","","","","2169","0","audio_projekt/leder.wav"
"audio-button-response","182","782272","0.0-13.0-0.0-0.6","rkoq","","","","","","4925","0","audio_projekt/bieten1.wav"
"audio-button-response","183","786799","0.0-13.0-0.0-0.7","rkoq","","","","","","4442","0","audio_projekt/spulen.wav"
"audio-button-response","184","788799","0.0-13.0-0.0-0.8","rkoq","","","","","","1920","0","audio_projekt/biene.wav"
"audio-button-response","185","791788","0.0-13.0-0.0-0.9","rkoq","","","","","","2905","0","audio_projekt/segel.wav"
"audio-button-response","186","793442","0.0-13.0-0.0-0.10","rkoq","","","","","","1572","0","audio_projekt/stuhl.wav"
"audio-button-response","187","800136","0.0-13.0-0.0-0.11","rkoq","","","","","","6636","0","audio_projekt/tier.wav"
"audio-button-response","188","803863","0.0-13.0-0.0-0.12","rkoq","","","","","","3644","0","audio_projekt/treffen2.wav"
"audio-button-response","189","806743","0.0-13.0-0.0-0.13","rkoq","","","","","","2797","0","audio_projekt/stiel.wav"
"audio-button-response","190","812030","0.0-13.0-0.0-0.14","rkoq","","","","","","5204","0","audio_projekt/siegel.wav"
"audio-button-response","191","818556","0.0-13.0-0.0-0.15","rkoq","","","","","","6302","0","audio_projekt/tour.wav"
"audio-button-response","192","827984","0.0-13.0-0.0-0.16","rkoq","","","","","","9347","0","audio_projekt/lieder.wav"
"audio-button-response","193","832059","0.0-13.0-0.0-0.17","rkoq","","","","","","3992","0","audio_projekt/spuelen2.wav"
"audio-button-response","194","836136","0.0-13.0-0.0-0.18","rkoq","","","","","","3996","0","audio_projekt/kiel.wav"
"audio-button-response","195","839704","0.0-13.0-0.0-0.19","rkoq","","","","","","3486","0","audio_projekt/kuehl.wav"
"audio-button-response","196","841573","0.0-13.0-0.0-0.20","rkoq","","","","","","1690","0","audio_projekt/spielen2.wav"
"audio-button-response","197","846664","0.0-13.0-0.0-0.21","rkoq","","","","","","4958","0","audio_projekt/triefen1.wav"
"audio-button-response","198","848386","0.0-13.0-0.1-0.22","rkoq","","","","","","1722","0","audio_projekt/blueten.wav"
"audio-button-response","199","849889","0.0-13.0-0.1-0.23","rkoq","","","","","","1500","0","audio_projekt/beten1.wav"
"audio-button-response","200","851115","0.0-13.0-0.1-0.24","rkoq","","","","","","1226","0","audio_projekt/tuer.wav"
"audio-button-response","201","852165","0.0-13.0-0.1-0.25","rkoq","","","","","","1047","0","audio_projekt/bluten.wav"
"audio-button-response","202","853063","0.0-13.0-0.1-0.26","rkoq","","","","","","895","0","audio_projekt/buehne.wav"
"audio-button-response","203","854119","0.0-13.0-0.1-0.27","rkoq","","","","","","1055","0","audio_projekt/leder.wav"
"audio-button-response","204","855196","0.0-13.0-0.1-0.28","rkoq","","","","","","1076","0","audio_projekt/bieten1.wav"
"audio-button-response","205","856271","0.0-13.0-0.1-0.29","rkoq","","","","","","1074","0","audio_projekt/spulen.wav"
"audio-button-response","206","857212","0.0-13.0-0.1-0.30","rkoq","","","","","","940","0","audio_projekt/biene.wav"
"audio-button-response","207","858262","0.0-13.0-0.1-0.31","rkoq","","","","","","1049","0","audio_projekt/segel.wav"
"audio-button-response","208","859227","0.0-13.0-0.1-0.32","rkoq","","","","","","964","0","audio_projekt/stuhl.wav"
"audio-button-response","209","860234","0.0-13.0-0.1-0.33","rkoq","","","","","","1006","0","audio_projekt/tier.wav"
"audio-button-response","210","861121","0.0-13.0-0.1-0.34","rkoq","","","","","","887","0","audio_projekt/treffen2.wav"
"audio-button-response","211","862155","0.0-13.0-0.1-0.35","rkoq","","","","","","1032","0","audio_projekt/stiel.wav"
"audio-button-response","212","863330","0.0-13.0-0.1-0.36","rkoq","","","","","","1175","0","audio_projekt/siegel.wav"
"audio-button-response","213","864150","0.0-13.0-0.1-0.37","rkoq","","","","","","819","0","audio_projekt/tour.wav"
"audio-button-response","214","865102","0.0-13.0-0.1-0.38","rkoq","","","","","","951","0","audio_projekt/lieder.wav"
"audio-button-response","215","868665","0.0-13.0-0.1-0.39","rkoq","","","","","","3561","0","audio_projekt/spuelen2.wav"
"audio-button-response","216","869662","0.0-13.0-0.1-0.40","rkoq","","","","","","995","0","audio_projekt/kiel.wav"
"audio-button-response","217","870980","0.0-13.0-0.1-0.41","rkoq","","","","","","1318","0","audio_projekt/kuehl.wav"
"audio-button-response","218","872201","0.0-13.0-0.1-0.42","rkoq","","","","","","1220","0","audio_projekt/spielen2.wav"
"audio-button-response","219","874773","0.0-13.0-0.1-0.43","rkoq","","","","","","2570","0","audio_projekt/triefen1.wav"
"html-keyboard-response","220","885598","0.0-14.0","rkoq","","","","","","10822","p","<h2>Teil 2: Identifikationsaufgabe: Vorbereitung 2</h2><div class=""myDiv""><p>Jetzt können Sie einen kurzen Probedurchlauf f&uuml;r diesen Teil des Experiments machen.</p><p>W&auml;hlen Sie das Bild aus, das das Wort darstellt. <ul><li>Dr&uuml;cken Sie die <b>Taste Q</b>, um das <b>linke</b> Bild auszuw&auml;hlen. Dr&uuml;cken Sie die <b>Taste P</b>, um das <b>rechte</b> Bild auszuw&auml;hlen.</li> <li>Sie haben 5 Sekunden Zeit, um sich f&uuml;r eines der Bilder zu entscheiden. </li><li>Bitte warten Sie, bis Sie <b>das ganze Wort gehört haben</b>, bevor Sie eine Taste drücken.</li></ul></p><p>Dr&uuml;cken Sie eine beliebige Taste, um den Probedurchlauf anzufangen.</p>"
"audio-keyboard-response","221","886336","0.0-15.0-0.0","rkoq","","","","","","null","null","audio_projekt/treffen2.wav"
"image-keyboard-response","222","887277","0.0-15.0-1.0","rkoq","","","","","","938","p","pics/scaled/triefen_treffen.png"
"audio-keyboard-response","223","888716","0.0-15.0-0.1","rkoq","","","","","","null","null","audio_projekt/beten1.wav"
"image-keyboard-response","224","889409","0.0-15.0-1.1","rkoq","","","","","","690","p","pics/scaled/bieten_beten.jpg"
"html-keyboard-response","225","893076","0.0-16.0","rkoq","","","","","","2860","p","<h2>Teil 2: Identifikationsaufgabe</h2><p>Jetzt sind Sie darauf vorbereitet, die Identifikationsaufgabe auszuführen.</p><p>Sind Sie bereit? Dann dr&uuml;cken Sie eine beliebige Taste, um anzufangen.</p>"
"audio-keyboard-response","226","893737","0.0-17.0-0.0","rkoq","","","","","","null","null","audio_projekt/kuehl.wav"
"image-keyboard-response","227","894617","0.0-17.0-1.0","rkoq","","","","","","877","p","pics/scaled/kiel_kuehl.jpg"
"audio-keyboard-response","228","896227","0.0-17.0-0.1","rkoq","","","","","","null","null","audio_projekt/stuhl.wav"
"image-keyboard-response","229","896782","0.0-17.0-1.1","rkoq","","","","","","555","p","pics/scaled/stiel2_stuhl.jpg"
"audio-keyboard-response","230","898194","0.0-17.0-0.2","rkoq","","","","","","null","null","audio_projekt/bluten.wav"
"image-keyboard-response","231","899036","0.0-17.0-1.2","rkoq","","","","","","840","p","pics/scaled/bluten_blueten.jpg"
"audio-keyboard-response","232","900748","0.0-17.0-0.3","rkoq","","","","","","null","null","audio_projekt/spuelen2.wav"
"image-keyboard-response","233","901423","0.0-17.0-1.3","rkoq","","","","","","673","p","pics/scaled/spielen_spuelen.jpg"
"audio-keyboard-response","234","902887","0.0-17.0-0.4","rkoq","","","","","","null","null","audio_projekt/lieder.wav"
"image-keyboard-response","235","903369","0.0-17.0-1.4","rkoq","","","","","","479","p","pics/scaled/lieder_leder.jpg"
"audio-keyboard-response","236","904809","0.0-17.0-0.5","rkoq","","","","","","null","null","audio_projekt/blueten.wav"
"image-keyboard-response","237","905333","0.0-17.0-1.5","rkoq","","","","","","523","p","pics/scaled/bluten_blueten.jpg"
"audio-keyboard-response","238","906730","0.0-17.0-0.6","rkoq","","","","","","null","null","audio_projekt/biene.wav"
"image-keyboard-response","239","907667","0.0-17.0-1.6","rkoq","","","","","","933","q","pics/scaled/biene_buehne.png"
"audio-keyboard-response","240","909392","0.0-17.0-0.7","rkoq","","","","","","null","null","audio_projekt/spuelen2.wav"
"image-keyboard-response","241","910060","0.0-17.0-1.7","rkoq","","","","","","667","p","pics/scaled/spulen_spuelen.jpg"
"audio-keyboard-response","242","911685","0.0-17.0-0.8","rkoq","","","","","","null","null","audio_projekt/stiel.wav"
"image-keyboard-response","243","912275","0.0-17.0-1.8","rkoq","","","","","","588","q","pics/scaled/stiel2_stuhl.jpg"
"audio-keyboard-response","244","914035","0.0-17.0-0.9","rkoq","","","","","","null","null","audio_projekt/spielen2.wav"
"image-keyboard-response","245","914390","0.0-17.0-1.9","rkoq","","","","","","353","p","pics/scaled/spielen_spulen.jpg"
"audio-keyboard-response","246","916055","0.0-17.0-0.10","rkoq","","","","","","null","null","audio_projekt/segel.wav"
"image-keyboard-response","247","916345","0.0-17.0-1.10","rkoq","","","","","","287","q","pics/scaled/siegel_segel.jpg"
"audio-keyboard-response","248","917683","0.0-17.0-0.11","rkoq","","","","","","null","null","audio_projekt/tour.wav"
"image-keyboard-response","249","918648","0.0-17.0-1.11","rkoq","","","","","","961","q","pics/scaled/tuer_tour.jpg"
"audio-keyboard-response","250","920305","0.0-17.0-0.12","rkoq","","","","","","null","null","audio_projekt/segel.wav"
"image-keyboard-response","251","921409","0.0-17.0-1.12","rkoq","","","","","","1102","q","pics/scaled/siegel_segel.jpg"
"audio-keyboard-response","252","922997","0.0-17.0-0.13","rkoq","","","","","","null","null","audio_projekt/stiel.wav"
"image-keyboard-response","253","923421","0.0-17.0-1.13","rkoq","","","","","","422","q","pics/scaled/stiel2_stuhl.jpg"
"audio-keyboard-response","254","924718","0.0-17.0-0.14","rkoq","","","","","","null","null","audio_projekt/tuer.wav"
"image-keyboard-response","255","925578","0.0-17.0-1.14","rkoq","","","","","","857","p","pics/scaled/tuer_tour.jpg"
"audio-keyboard-response","256","927008","0.0-17.0-0.15","rkoq","","","","","","null","null","audio_projekt/kuehl.wav"
"image-keyboard-response","257","927642","0.0-17.0-1.15","rkoq","","","","","","634","p","pics/scaled/kiel_kuehl.jpg"
"audio-keyboard-response","258","929356","0.0-17.0-0.16","rkoq","","","","","","null","null","audio_projekt/spulen.wav"
"image-keyboard-response","259","929703","0.0-17.0-1.16","rkoq","","","","","","347","q","pics/scaled/spielen_spulen.jpg"
"audio-keyboard-response","260","931500","0.0-17.0-0.17","rkoq","","","","","","null","null","audio_projekt/spielen.wav"
"image-keyboard-response","261","931588","0.0-17.0-1.17","rkoq","","","","","","88","q","pics/scaled/spielen_spuelen.jpg"
"audio-keyboard-response","262","933294","0.0-17.0-0.18","rkoq","","","","","","null","null","audio_projekt/spielen2.wav"
"image-keyboard-response","263","933662","0.0-17.0-1.18","rkoq","","","","","","368","p","pics/scaled/spielen_spulen.jpg"
"audio-keyboard-response","264","934981","0.0-17.0-0.19","rkoq","","","","","","null","null","audio_projekt/tour.wav"
"image-keyboard-response","265","936170","0.0-17.0-1.19","rkoq","","","","","","1187","p","pics/scaled/tier_tour.jpg"
"audio-keyboard-response","266","937648","0.0-17.0-0.20","rkoq","","","","","","null","null","audio_projekt/lieder.wav"
"image-keyboard-response","267","938175","0.0-17.0-1.20","rkoq","","","","","","525","p","pics/scaled/lieder_leder.jpg"
"audio-keyboard-response","268","939911","0.0-17.0-0.21","rkoq","","","","","","null","null","audio_projekt/spielen.wav"
"image-keyboard-response","269","940141","0.0-17.0-1.21","rkoq","","","","","","231","q","pics/scaled/spielen_spuelen.jpg"
"audio-keyboard-response","270","941617","0.0-17.0-0.22","rkoq","","","","","","null","null","audio_projekt/biene.wav"
"image-keyboard-response","271","942194","0.0-17.0-1.22","rkoq","","","","","","576","q","pics/scaled/biene_buehne.png"
"audio-keyboard-response","272","943635","0.0-17.0-0.23","rkoq","","","","","","null","null","audio_projekt/buehne.wav"
"image-keyboard-response","273","943869","0.0-17.0-1.23","rkoq","","","","","","231","p","pics/scaled/biene_buehne.png"
"audio-keyboard-response","274","945284","0.0-17.0-0.24","rkoq","","","","","","null","null","audio_projekt/kiel.wav"
"image-keyboard-response","275","945671","0.0-17.0-1.24","rkoq","","","","","","386","q","pics/scaled/kiel_kuehl.jpg"
"audio-keyboard-response","276","947417","0.0-17.0-0.25","rkoq","","","","","","null","null","audio_projekt/spulen.wav"
"image-keyboard-response","277","947576","0.0-17.0-1.25","rkoq","","","","","","156","p","pics/scaled/spulen_spuelen.jpg"
"audio-keyboard-response","278","949014","0.0-17.0-0.26","rkoq","","","","","","null","null","audio_projekt/bluten.wav"
"image-keyboard-response","279","949932","0.0-17.0-1.26","rkoq","","","","","","914","p","pics/scaled/bluten_blueten.jpg"
"audio-keyboard-response","280","951666","0.0-17.0-0.27","rkoq","","","","","","null","null","audio_projekt/spielen.wav"
"image-keyboard-response","281","951699","0.0-17.0-1.27","rkoq","","","","","","31","q","pics/scaled/spielen_spuelen.jpg"
"audio-keyboard-response","282","953182","0.0-17.0-0.28","rkoq","","","","","","null","null","audio_projekt/leder.wav"
"image-keyboard-response","283","953738","0.0-17.0-1.28","rkoq","","","","","","555","q","pics/scaled/lieder_leder.jpg"
"audio-keyboard-response","284","955407","0.0-17.0-0.29","rkoq","","","","","","null","null","audio_projekt/segel.wav"
"image-keyboard-response","285","955680","0.0-17.0-1.29","rkoq","","","","","","271","q","pics/scaled/siegel_segel.jpg"
"audio-keyboard-response","286","957011","0.0-17.0-0.30","rkoq","","","","","","null","null","audio_projekt/tier.wav"
"image-keyboard-response","287","957468","0.0-17.0-1.30","rkoq","","","","","","455","q","pics/scaled/tier_tour.jpg"
"audio-keyboard-response","288","958844","0.0-17.0-0.31","rkoq","","","","","","null","null","audio_projekt/tour.wav"
"image-keyboard-response","289","959439","0.0-17.0-1.31","rkoq","","","","","","594","q","pics/scaled/tuer_tour.jpg"
"audio-keyboard-response","290","960847","0.0-17.0-0.32","rkoq","","","","","","null","null","audio_projekt/tuer.wav"
"image-keyboard-response","291","961123","0.0-17.0-1.32","rkoq","","","","","","275","p","pics/scaled/tuer_tour.jpg"
"audio-keyboard-response","292","962521","0.0-17.0-0.33","rkoq","","","","","","null","null","audio_projekt/buehne.wav"
"image-keyboard-response","293","963246","0.0-17.0-1.33","rkoq","","","","","","725","p","pics/scaled/biene_buehne.png"
"audio-keyboard-response","294","964925","0.0-17.0-0.34","rkoq","","","","","","null","null","audio_projekt/siegel.wav"
"image-keyboard-response","295","965653","0.0-17.0-1.34","rkoq","","","","","","726","p","pics/scaled/siegel_segel.jpg"
"audio-keyboard-response","296","967280","0.0-17.0-0.35","rkoq","","","","","","null","null","audio_projekt/siegel.wav"
"image-keyboard-response","297","967469","0.0-17.0-1.35","rkoq","","","","","","187","p","pics/scaled/siegel_segel.jpg"
"audio-keyboard-response","298","968872","0.0-17.0-0.36","rkoq","","","","","","null","null","audio_projekt/buehne.wav"
"image-keyboard-response","299","969609","0.0-17.0-1.36","rkoq","","","","","","736","p","pics/scaled/biene_buehne.png"
"audio-keyboard-response","300","971395","0.0-17.0-0.37","rkoq","","","","","","null","null","audio_projekt/spulen.wav"
"image-keyboard-response","301","971923","0.0-17.0-1.37","rkoq","","","","","","527","q","pics/scaled/spielen_spulen.jpg"
"audio-keyboard-response","302","973264","0.0-17.0-0.38","rkoq","","","","","","null","null","audio_projekt/tour.wav"
"image-keyboard-response","303","973767","0.0-17.0-1.38","rkoq","","","","","","502","p","pics/scaled/tier_tour.jpg"
"audio-keyboard-response","304","975151","0.0-17.0-0.39","rkoq","","","","","","null","null","audio_projekt/blueten.wav"
"image-keyboard-response","305","975686","0.0-17.0-1.39","rkoq","","","","","","535","p","pics/scaled/bluten_blueten.jpg"
"audio-keyboard-response","306","976989","0.0-17.0-0.40","rkoq","","","","","","null","null","audio_projekt/tier.wav"
"image-keyboard-response","307","977291","0.0-17.0-1.40","rkoq","","","","","","300","q","pics/scaled/tier_tour.jpg"
"audio-keyboard-response","308","978622","0.0-17.0-0.41","rkoq","","","","","","null","null","audio_projekt/tour.wav"
"image-keyboard-response","309","979399","0.0-17.0-1.41","rkoq","","","","","","776","q","pics/scaled/tuer_tour.jpg"
"audio-keyboard-response","310","980826","0.0-17.0-0.42","rkoq","","","","","","null","null","audio_projekt/blueten.wav"
"image-keyboard-response","311","981312","0.0-17.0-1.42","rkoq","","","","","","485","p","pics/scaled/bluten_blueten.jpg"
"audio-keyboard-response","312","982937","0.0-17.0-0.43","rkoq","","","","","","null","null","audio_projekt/stiel.wav"
"image-keyboard-response","313","984312","0.0-17.0-1.43","rkoq","","","","","","1373","q","pics/scaled/stiel2_stuhl.jpg"
"audio-keyboard-response","314","985628","0.0-17.0-0.44","rkoq","","","","","","null","null","audio_projekt/tuer.wav"
"image-keyboard-response","315","986210","0.0-17.0-1.44","rkoq","","","","","","582","q","pics/scaled/tuer_tour.jpg"
"audio-keyboard-response","316","987841","0.0-17.0-0.45","rkoq","","","","","","null","null","audio_projekt/stuhl.wav"
"image-keyboard-response","317","988191","0.0-17.0-1.45","rkoq","","","","","","348","p","pics/scaled/stiel2_stuhl.jpg"
"audio-keyboard-response","318","989660","0.0-17.0-0.46","rkoq","","","","","","null","null","audio_projekt/leder.wav"
"image-keyboard-response","319","989965","0.0-17.0-1.46","rkoq","","","","","","303","q","pics/scaled/lieder_leder.jpg"
"audio-keyboard-response","320","991737","0.0-17.0-0.47","rkoq","","","","","","null","null","audio_projekt/spuelen2.wav"
"image-keyboard-response","321","992104","0.0-17.0-1.47","rkoq","","","","","","365","p","pics/scaled/spulen_spuelen.jpg"
"audio-keyboard-response","322","993441","0.0-17.0-0.48","rkoq","","","","","","null","null","audio_projekt/tier.wav"
"image-keyboard-response","323","993809","0.0-17.0-1.48","rkoq","","","","","","366","q","pics/scaled/tier_tour.jpg"
"audio-keyboard-response","324","995542","0.0-17.0-0.49","rkoq","","","","","","null","null","audio_projekt/spuelen2.wav"
"image-keyboard-response","325","997422","0.0-17.0-1.49","rkoq","","","","","","1879","p","pics/scaled/spulen_spuelen.jpg"
"audio-keyboard-response","326","999060","0.0-17.0-0.50","rkoq","","","","","","null","null","audio_projekt/siegel.wav"
"image-keyboard-response","327","999516","0.0-17.0-1.50","rkoq","","","","","","455","p","pics/scaled/siegel_segel.jpg"
"audio-keyboard-response","328","1001257","0.0-17.0-0.51","rkoq","","","","","","null","null","audio_projekt/spulen.wav"
"image-keyboard-response","329","1001425","0.0-17.0-1.51","rkoq","","","","","","166","q","pics/scaled/spielen_spulen.jpg"
"audio-keyboard-response","330","1003163","0.0-17.0-0.52","rkoq","","","","","","null","null","audio_projekt/spulen.wav"
"image-keyboard-response","331","1003277","0.0-17.0-1.52","rkoq","","","","","","112","q","pics/scaled/spulen_spuelen.jpg"
"audio-keyboard-response","332","1004739","0.0-17.0-0.53","rkoq","","","","","","null","null","audio_projekt/biene.wav"
"image-keyboard-response","333","1005009","0.0-17.0-1.53","rkoq","","","","","","268","q","pics/scaled/biene_buehne.png"
"audio-keyboard-response","334","1006703","0.0-17.0-0.54","rkoq","","","","","","null","null","audio_projekt/spuelen2.wav"
"image-keyboard-response","335","1006816","0.0-17.0-1.54","rkoq","","","","","","112","p","pics/scaled/spielen_spuelen.jpg"
"audio-keyboard-response","336","1008314","0.0-17.0-0.55","rkoq","","","","","","null","null","audio_projekt/lieder.wav"
"image-keyboard-response","337","1008586","0.0-17.0-1.55","rkoq","","","","","","270","p","pics/scaled/lieder_leder.jpg"
"audio-keyboard-response","338","1010293","0.0-17.0-0.56","rkoq","","","","","","null","null","audio_projekt/spulen.wav"
"image-keyboard-response","339","1011315","0.0-17.0-1.56","rkoq","","","","","","1020","q","pics/scaled/spulen_spuelen.jpg"
"audio-keyboard-response","340","1012807","0.0-17.0-0.57","rkoq","","","","","","null","null","audio_projekt/leder.wav"
"image-keyboard-response","341","1013118","0.0-17.0-1.57","rkoq","","","","","","310","q","pics/scaled/lieder_leder.jpg"
"audio-keyboard-response","342","1014526","0.0-17.0-0.58","rkoq","","","","","","null","null","audio_projekt/bluten.wav"
"image-keyboard-response","343","1014967","0.0-17.0-1.58","rkoq","","","","","","440","p","pics/scaled/bluten_blueten.jpg"
"audio-keyboard-response","344","1016305","0.0-17.0-0.59","rkoq","","","","","","null","null","audio_projekt/tour.wav"
"image-keyboard-response","345","1016870","0.0-17.0-1.59","rkoq","","","","","","564","p","pics/scaled/tier_tour.jpg"
"audio-keyboard-response","346","1018335","0.0-17.0-0.60","rkoq","","","","","","null","null","audio_projekt/kuehl.wav"
"image-keyboard-response","347","1018935","0.0-17.0-1.60","rkoq","","","","","","598","p","pics/scaled/kiel_kuehl.jpg"
"audio-keyboard-response","348","1020347","0.0-17.0-0.61","rkoq","","","","","","null","null","audio_projekt/kiel.wav"
"image-keyboard-response","349","1020604","0.0-17.0-1.61","rkoq","","","","","","254","q","pics/scaled/kiel_kuehl.jpg"
"audio-keyboard-response","350","1022037","0.0-17.0-0.62","rkoq","","","","","","null","null","audio_projekt/kiel.wav"
"image-keyboard-response","351","1022284","0.0-17.0-1.62","rkoq","","","","","","245","q","pics/scaled/kiel_kuehl.jpg"
"audio-keyboard-response","352","1023948","0.0-17.0-0.63","rkoq","","","","","","null","null","audio_projekt/stuhl.wav"
"image-keyboard-response","353","1024232","0.0-17.0-1.63","rkoq","","","","","","282","p","pics/scaled/stiel2_stuhl.jpg"
"audio-keyboard-response","354","1025964","0.0-17.0-0.64","rkoq","","","","","","null","null","audio_projekt/spuelen2.wav"
"image-keyboard-response","355","1025994","0.0-17.0-1.64","rkoq","","","","","","27","p","pics/scaled/spielen_spuelen.jpg"
"audio-keyboard-response","356","1027744","0.0-17.0-0.65","rkoq","","","","","","null","null","audio_projekt/spielen2.wav"
"image-keyboard-response","357","1027814","0.0-17.0-1.65","rkoq","","","","","","68","p","pics/scaled/spielen_spulen.jpg"
