"trial_type","trial_index","time_elapsed","internal_node_id","subject","success","timeout","failed_images","failed_audio","failed_video","rt","response","stimulus"
"pavlovia","0","1578","0.0-0.0","8dul","","","","","","","",""
"preload","1","1633","0.0-1.0","8dul","true","false","[]","[]","[]","","",""
"survey-html-form","2","8158","0.0-2.0","8dul","","","","","","6517","{""code"":""5eca55ce7b00b50119c64518""}",""
"html-button-response","3","38465","0.0-3.0","8dul","","","","","","30303","0","<h2>Willkommen zum Experiment!</h2><div class=""myDiv""><p>Vielen Dank f&uuml;r Ihr Interesse an dieser Studie. Wir bitten Sie <strong>Kopfh&ouml;rer</strong> daf&uuml;r zu verwenden.</p></div><div><img src=""pics/headphones.png"" title=""Earbuds are also fine"" width=""250"" height=""200"" class=""center""></div><div class=""myDiv""><p>Das Experiment besteht aus zwei Teilen:</p> <ol> <li>Eine <strong>Unterscheidungsaufgabe,</strong> in der Sie zwei W&ouml;rter h&ouml;ren. Im Anschluss sollen Sie feststellen, ob diese W&ouml;rter gleich oder unterschiedlich sind;</li><li>Eine <strong>Identifikationsaufgabe,</strong> in der Sie nur ein Wort h&ouml;ren, wobei Ihnen aber zwei Bilder gezeigt werden. Ihre Aufgabe ist es, dasjenige Bild auszuw&auml;hlen, das das geh&ouml;rte Wort darstellt.</li> </ol><p>Wir bitten Sie um Ihre Zustimmung, bevor wir Ihre Daten sammeln und verwenden. Bitte klicken Sie auf den ""Start""-Button, um Ihre Zustimmung zu geben. Anschlie&szlig;end werden wir ein paar Fragen zu Ihren Sprachkenntnissen stellen. Danach k&ouml;nnen Sie das Experiment starten. </p></div>"
"survey-html-form","4","44105","0.0-4.0","8dul","","","","","","5637","{""zustimmung"":""on""}",""
"survey-html-form","5","94167","0.0-5.0","8dul","","","","","","50056","{""native"":""Engish "",""AOL"":""12"",""LearnType3"":""lgeschool"",""which"":"""",""AOA"":"""",""timespent"":""""}",""
"audio-button-response","6","98647","0.0-6.0-0.0","8dul","","","","","","3583","0","audio_projekt/treffen1.wav"
"audio-button-response","7","99953","0.0-6.1-0.1","8dul","","","","","","1302","0","audio_projekt/treffen1.wav"
"audio-button-response","8","101005","0.0-6.2-0.2","8dul","","","","","","1049","0","audio_projekt/treffen1.wav"
"audio-button-response","9","102328","0.0-6.3-0.3","8dul","","","","","","1319","1","audio_projekt/treffen1.wav"
"html-keyboard-response","10","115072","0.0-7.0","8dul","","","","","","12741","q","<h2>Teil 1: Unterscheidungsaufgabe</h2><div class=""myDiv""><p>In diesem Teil des Experimentes werden Sie im Abstand von 1.5 Sekunden <b>zwei W&ouml;rter</b> h&ouml;ren.</p><ul><li>Ihre Aufgabe ist es, festzustellen, ob diese W&ouml;rter <b>gleich oder unterschiedlich</b> sind. Wenn es einen Unterschied gibt, besteht dieser nur aus einem Vokal. </li> <li>Dr&uuml;cken Sie die <b>Taste Q</b>, wenn die W&ouml;rter gleich sind. Dr&uuml;cken Sie die <b>Taste P</b>, wenn die W&ouml;rter unterschiedlich sind.</li><li>Bitte warten Sie, bis Sie <b>beide Wörter gehört haben</b>, bevor Sie eine Taste drücken. Aber Achtung: Sie haben nur <b>5 Sekunden</b>, um eine Option auszuw&auml;hlen! &Uuml;berlegen Sie daher bitte nicht zu lange.</li></ul><br><p>Dr&uuml;cken Sie eine beliebige Taste, um ein paar Testversuche zu machen.</p></ul></div>"
"audio-keyboard-response","11","118663","0.0-8.0-0.0","8dul","","","","","","null","null","audio_projekt/treffen1500triefen.wav"
"html-keyboard-response","12","119742","0.0-8.0-1.0","8dul","","","","","","1076","p","<div></div>"
"audio-keyboard-response","13","123941","0.0-8.0-0.1","8dul","","","","","","null","null","audio_projekt/treffen1500treffen.wav"
"html-keyboard-response","14","124531","0.0-8.0-1.1","8dul","","","","","","588","q","<div></div>"
"html-keyboard-response","15","127821","0.0-9.0","8dul","","","","","","2470"," ","<p>Gut! Jetzt f&auml;ngt der erste Teil des Experiments an. Dieser Teil dauert ca. 10 Minuten.</p><br><p>Bitte dr&uuml;cken Sie eine beliebige Taste, um fortzufahren.<div style=""height:30px; width:100%""></div>"
"audio-keyboard-response","16","130521","0.0-10.0-0.0","8dul","","","","","","null","null","audio_projekt/tour1500tour.wav"
"html-keyboard-response","17","131054","0.0-10.0-1.0","8dul","","","","","","532","q","<div></div>"
"audio-keyboard-response","18","134880","0.0-10.0-0.1","8dul","","","","","","null","null","audio_projekt/tier1500tour.wav"
"html-keyboard-response","19","135747","0.0-10.0-1.1","8dul","","","","","","865","p","<div></div>"
"audio-keyboard-response","20","139502","0.0-10.0-0.2","8dul","","","","","","null","null","audio_projekt/lieder1500leder.wav"
"html-keyboard-response","21","140385","0.0-10.0-1.2","8dul","","","","","","882","p","<div></div>"
"audio-keyboard-response","22","144300","0.0-10.0-0.3","8dul","","","","","","null","null","audio_projekt/bluten1500blueten.wav"
"html-keyboard-response","23","145584","0.0-10.0-1.3","8dul","","","","","","1282","q","<div></div>"
"audio-keyboard-response","24","149121","0.0-10.0-0.4","8dul","","","","","","null","null","audio_projekt/lieder1500leder.wav"
"html-keyboard-response","25","150502","0.0-10.0-1.4","8dul","","","","","","1378","q","<div></div>"
"audio-keyboard-response","26","155422","0.0-10.0-0.5","8dul","","","","","","null","null","audio_projekt/spulen1500spulen.wav"
"html-keyboard-response","27","155656","0.0-10.0-1.5","8dul","","","","","","232","q","<div></div>"
"audio-keyboard-response","28","159862","0.0-10.0-0.6","8dul","","","","","","null","null","audio_projekt/siegel1500siegel.wav"
"html-keyboard-response","29","160261","0.0-10.0-1.6","8dul","","","","","","397","q","<div></div>"
"audio-keyboard-response","30","164662","0.0-10.0-0.7","8dul","","","","","","null","null","audio_projekt/spuelen1500spulen.wav"
"html-keyboard-response","31","164997","0.0-10.0-1.7","8dul","","","","","","333","p","<div></div>"
"audio-keyboard-response","32","169080","0.0-10.0-0.8","8dul","","","","","","null","null","audio_projekt/stiel1500stiel.wav"
"html-keyboard-response","33","169291","0.0-10.0-1.8","8dul","","","","","","210","q","<div></div>"
"audio-keyboard-response","34","173721","0.0-10.0-0.9","8dul","","","","","","null","null","audio_projekt/spulen1500spuelen.wav"
"html-keyboard-response","35","174184","0.0-10.0-1.9","8dul","","","","","","462","p","<div></div>"
"audio-keyboard-response","36","178140","0.0-10.0-0.10","8dul","","","","","","null","null","audio_projekt/kuehl1500kuehl.wav"
"html-keyboard-response","37","178525","0.0-10.0-1.10","8dul","","","","","","384","q","<div></div>"
"audio-keyboard-response","38","182724","0.0-10.0-0.11","8dul","","","","","","null","null","audio_projekt/leder1500lieder.wav"
"html-keyboard-response","39","183242","0.0-10.0-1.11","8dul","","","","","","516","p","<div></div>"
"audio-keyboard-response","40","187641","0.0-10.0-0.12","8dul","","","","","","null","null","audio_projekt/siegel1500siegel.wav"
"html-keyboard-response","41","187694","0.0-10.0-1.12","8dul","","","","","","51","q","<div></div>"
"audio-keyboard-response","42","191202","0.0-10.0-0.13","8dul","","","","","","null","null","audio_projekt/kuehl1500kuehl.wav"
"html-keyboard-response","43","191408","0.0-10.0-1.13","8dul","","","","","","203","q","<div></div>"
"audio-keyboard-response","44","195461","0.0-10.0-0.14","8dul","","","","","","null","null","audio_projekt/kiel1500kiel.wav"
"html-keyboard-response","45","195742","0.0-10.0-1.14","8dul","","","","","","279","q","<div></div>"
"audio-keyboard-response","46","199222","0.0-10.0-0.15","8dul","","","","","","null","null","audio_projekt/tier1500tier.wav"
"html-keyboard-response","47","199535","0.0-10.0-1.15","8dul","","","","","","312","q","<div></div>"
"audio-keyboard-response","48","203322","0.0-10.0-0.16","8dul","","","","","","null","null","audio_projekt/tour1500tier.wav"
"html-keyboard-response","49","203778","0.0-10.0-1.16","8dul","","","","","","453","p","<div></div>"
"audio-keyboard-response","50","208482","0.0-10.0-0.17","8dul","","","","","","null","null","audio_projekt/spielen1500spielen.wav"
"html-keyboard-response","51","208624","0.0-10.0-1.17","8dul","","","","","","140","q","<div></div>"
"audio-keyboard-response","52","213262","0.0-10.0-0.18","8dul","","","","","","null","null","audio_projekt/spielen1500spulen.wav"
"html-keyboard-response","53","213513","0.0-10.0-1.18","8dul","","","","","","251","p","<div></div>"
"audio-keyboard-response","54","217801","0.0-10.0-0.19","8dul","","","","","","null","null","audio_projekt/spuelen1500spielen.wav"
"html-keyboard-response","55","218499","0.0-10.0-1.19","8dul","","","","","","696","p","<div></div>"
"audio-keyboard-response","56","222081","0.0-10.0-0.20","8dul","","","","","","null","null","audio_projekt/kiel1500kiel.wav"
"html-keyboard-response","57","222491","0.0-10.0-1.20","8dul","","","","","","409","q","<div></div>"
"audio-keyboard-response","58","226361","0.0-10.0-0.21","8dul","","","","","","null","null","audio_projekt/spuelen1500spulen.wav"
"html-keyboard-response","59","226766","0.0-10.0-1.21","8dul","","","","","","403","p","<div></div>"
"audio-keyboard-response","60","230542","0.0-10.0-0.22","8dul","","","","","","null","null","audio_projekt/tuer1500tuer.wav"
"html-keyboard-response","61","231050","0.0-10.0-1.22","8dul","","","","","","505","q","<div></div>"
"audio-keyboard-response","62","235082","0.0-10.0-0.23","8dul","","","","","","null","null","audio_projekt/kuehl1500kiel.wav"
"html-keyboard-response","63","235516","0.0-10.0-1.23","8dul","","","","","","431","p","<div></div>"
"audio-keyboard-response","64","240061","0.0-10.0-0.24","8dul","","","","","","null","null","audio_projekt/lieder1500lieder.wav"
"html-keyboard-response","65","240379","0.0-10.0-1.24","8dul","","","","","","317","q","<div></div>"
"audio-keyboard-response","66","244161","0.0-10.0-0.25","8dul","","","","","","null","null","audio_projekt/tuer1500tour.wav"
"html-keyboard-response","67","244623","0.0-10.0-1.25","8dul","","","","","","461","p","<div></div>"
"audio-keyboard-response","68","248942","0.0-10.0-0.26","8dul","","","","","","null","null","audio_projekt/spuelen1500spuelen.wav"
"html-keyboard-response","69","248958","0.0-10.0-1.26","8dul","","","","","","14","q","<div></div>"
"audio-keyboard-response","70","253623","0.0-10.0-0.27","8dul","","","","","","null","null","audio_projekt/leder1500leder.wav"
"html-keyboard-response","71","254402","0.0-10.0-1.27","8dul","","","","","","777","q","<div></div>"
"audio-keyboard-response","72","258501","0.0-10.0-0.28","8dul","","","","","","null","null","audio_projekt/spulen1500spulen.wav"
"html-keyboard-response","73","258608","0.0-10.0-1.28","8dul","","","","","","106","q","<div></div>"
"audio-keyboard-response","74","262042","0.0-10.0-0.29","8dul","","","","","","null","null","audio_projekt/bluten1500blueten.wav"
"html-keyboard-response","75","262582","0.0-10.0-1.29","8dul","","","","","","538","p","<div></div>"
"audio-keyboard-response","76","266843","0.0-10.0-0.30","8dul","","","","","","null","null","audio_projekt/buehne1500buehne.wav"
"html-keyboard-response","77","267182","0.0-10.0-1.30","8dul","","","","","","337","q","<div></div>"
"audio-keyboard-response","78","271261","0.0-10.0-0.31","8dul","","","","","","null","null","audio_projekt/stiel1500stuhl.wav"
"html-keyboard-response","79","271761","0.0-10.0-1.31","8dul","","","","","","498","p","<div></div>"
"audio-keyboard-response","80","275903","0.0-10.0-0.32","8dul","","","","","","null","null","audio_projekt/spuelen1500spuelen.wav"
"html-keyboard-response","81","276181","0.0-10.0-1.32","8dul","","","","","","276","q","<div></div>"
"audio-keyboard-response","82","280042","0.0-10.0-0.33","8dul","","","","","","null","null","audio_projekt/spulen1500spuelen.wav"
"html-keyboard-response","83","280452","0.0-10.0-1.33","8dul","","","","","","410","p","<div></div>"
"audio-keyboard-response","84","284502","0.0-10.0-0.34","8dul","","","","","","null","null","audio_projekt/spielen1500spielen.wav"
"html-keyboard-response","85","284643","0.0-10.0-1.34","8dul","","","","","","140","q","<div></div>"
"audio-keyboard-response","86","287902","0.0-10.0-0.35","8dul","","","","","","null","null","audio_projekt/tuer1500tuer.wav"
"html-keyboard-response","87","288387","0.0-10.0-1.35","8dul","","","","","","484","q","<div></div>"
"audio-keyboard-response","88","291803","0.0-10.0-0.36","8dul","","","","","","null","null","audio_projekt/buehne1500buehne.wav"
"html-keyboard-response","89","292076","0.0-10.0-1.36","8dul","","","","","","270","q","<div></div>"
"audio-keyboard-response","90","296501","0.0-10.0-0.37","8dul","","","","","","null","null","audio_projekt/stuhl1500stuhl.wav"
"html-keyboard-response","91","296854","0.0-10.0-1.37","8dul","","","","","","352","q","<div></div>"
"audio-keyboard-response","92","300502","0.0-10.0-0.38","8dul","","","","","","null","null","audio_projekt/blueten1500bluten.wav"
"html-keyboard-response","93","301123","0.0-10.0-1.38","8dul","","","","","","618","p","<div></div>"
"audio-keyboard-response","94","304380","0.0-10.0-0.39","8dul","","","","","","null","null","audio_projekt/tour1500tour.wav"
"html-keyboard-response","95","305043","0.0-10.0-1.39","8dul","","","","","","662","q","<div></div>"
"audio-keyboard-response","96","309562","0.0-10.0-0.40","8dul","","","","","","null","null","audio_projekt/segel1500siegel.wav"
"html-keyboard-response","97","310050","0.0-10.0-1.40","8dul","","","","","","485","p","<div></div>"
"audio-keyboard-response","98","314542","0.0-10.0-0.41","8dul","","","","","","null","null","audio_projekt/spielen1500spuelen.wav"
"html-keyboard-response","99","314711","0.0-10.0-1.41","8dul","","","","","","165","p","<div></div>"
"audio-keyboard-response","100","318382","0.0-10.0-0.42","8dul","","","","","","null","null","audio_projekt/bluten1500bluten.wav"
"html-keyboard-response","101","318742","0.0-10.0-1.42","8dul","","","","","","359","q","<div></div>"
"audio-keyboard-response","102","322640","0.0-10.0-0.43","8dul","","","","","","null","null","audio_projekt/segel1500siegel.wav"
"html-keyboard-response","103","322881","0.0-10.0-1.43","8dul","","","","","","240","p","<div></div>"
"audio-keyboard-response","104","326302","0.0-10.0-0.44","8dul","","","","","","null","null","audio_projekt/bluten1500bluten.wav"
"html-keyboard-response","105","327023","0.0-10.0-1.44","8dul","","","","","","719","q","<div></div>"
"audio-keyboard-response","106","330961","0.0-10.0-0.45","8dul","","","","","","null","null","audio_projekt/biene1500biene.wav"
"html-keyboard-response","107","331337","0.0-10.0-1.45","8dul","","","","","","375","q","<div></div>"
"audio-keyboard-response","108","335241","0.0-10.0-0.46","8dul","","","","","","null","null","audio_projekt/blueten1500blueten.wav"
"html-keyboard-response","109","335422","0.0-10.0-1.46","8dul","","","","","","178","q","<div></div>"
"audio-keyboard-response","110","339420","0.0-10.0-0.47","8dul","","","","","","null","null","audio_projekt/biene1500buehne.wav"
"html-keyboard-response","111","339779","0.0-10.0-1.47","8dul","","","","","","357","p","<div></div>"
"audio-keyboard-response","112","343900","0.0-10.0-0.48","8dul","","","","","","null","null","audio_projekt/kiel1500kuehl.wav"
"html-keyboard-response","113","344285","0.0-10.0-1.48","8dul","","","","","","384","p","<div></div>"
"audio-keyboard-response","114","348580","0.0-10.0-0.49","8dul","","","","","","null","null","audio_projekt/spulen1500spielen.wav"
"html-keyboard-response","115","348948","0.0-10.0-1.49","8dul","","","","","","367","p","<div></div>"
"audio-keyboard-response","116","352501","0.0-10.0-0.50","8dul","","","","","","null","null","audio_projekt/lieder1500lieder.wav"
"html-keyboard-response","117","352669","0.0-10.0-1.50","8dul","","","","","","168","q","<div></div>"
"audio-keyboard-response","118","356501","0.0-10.0-0.51","8dul","","","","","","null","null","audio_projekt/stiel1500stiel.wav"
"html-keyboard-response","119","356586","0.0-10.0-1.51","8dul","","","","","","84","q","<div></div>"
"audio-keyboard-response","120","360022","0.0-10.0-0.52","8dul","","","","","","null","null","audio_projekt/blueten1500blueten.wav"
"html-keyboard-response","121","360203","0.0-10.0-1.52","8dul","","","","","","178","q","<div></div>"
"audio-keyboard-response","122","364342","0.0-10.0-0.53","8dul","","","","","","null","null","audio_projekt/stuhl1500stiel.wav"
"html-keyboard-response","123","364663","0.0-10.0-1.53","8dul","","","","","","319","p","<div></div>"
"audio-keyboard-response","124","367922","0.0-10.0-0.54","8dul","","","","","","null","null","audio_projekt/tour1500tier.wav"
"html-keyboard-response","125","368206","0.0-10.0-1.54","8dul","","","","","","282","p","<div></div>"
"audio-keyboard-response","126","372020","0.0-10.0-0.55","8dul","","","","","","null","null","audio_projekt/stuhl1500stiel.wav"
"html-keyboard-response","127","372185","0.0-10.0-1.55","8dul","","","","","","163","p","<div></div>"
"audio-keyboard-response","128","375762","0.0-10.0-0.56","8dul","","","","","","null","null","audio_projekt/leder1500leder.wav"
"html-keyboard-response","129","380776","0.0-10.0-1.56","8dul","","","","","","null","null","<div></div>"
"audio-keyboard-response","130","384861","0.0-10.0-0.57","8dul","","","","","","null","null","audio_projekt/spulen1500spielen.wav"
"html-keyboard-response","131","385049","0.0-10.0-1.57","8dul","","","","","","188","p","<div></div>"
"audio-keyboard-response","132","388520","0.0-10.0-0.58","8dul","","","","","","null","null","audio_projekt/tour1500tuer.wav"
"html-keyboard-response","133","389494","0.0-10.0-1.58","8dul","","","","","","973","p","<div></div>"
"audio-keyboard-response","134","393661","0.0-10.0-0.59","8dul","","","","","","null","null","audio_projekt/segel1500segel.wav"
"html-keyboard-response","135","393958","0.0-10.0-1.59","8dul","","","","","","297","q","<div></div>"
"audio-keyboard-response","136","397541","0.0-10.0-0.60","8dul","","","","","","null","null","audio_projekt/leder1500lieder.wav"
"html-keyboard-response","137","397931","0.0-10.0-1.60","8dul","","","","","","389","p","<div></div>"
"audio-keyboard-response","138","401181","0.0-10.0-0.61","8dul","","","","","","null","null","audio_projekt/tuer1500tour.wav"
"html-keyboard-response","139","401647","0.0-10.0-1.61","8dul","","","","","","465","p","<div></div>"
"audio-keyboard-response","140","405262","0.0-10.0-0.62","8dul","","","","","","null","null","audio_projekt/buehne1500biene.wav"
"html-keyboard-response","141","405538","0.0-10.0-1.62","8dul","","","","","","275","p","<div></div>"
"audio-keyboard-response","142","409561","0.0-10.0-0.63","8dul","","","","","","null","null","audio_projekt/spielen1500spuelen.wav"
"html-keyboard-response","143","409697","0.0-10.0-1.63","8dul","","","","","","135","p","<div></div>"
"audio-keyboard-response","144","413860","0.0-10.0-0.64","8dul","","","","","","null","null","audio_projekt/siegel1500segel.wav"
"html-keyboard-response","145","414050","0.0-10.0-1.64","8dul","","","","","","189","p","<div></div>"
"audio-keyboard-response","146","417320","0.0-10.0-0.65","8dul","","","","","","null","null","audio_projekt/tier1500tour.wav"
"html-keyboard-response","147","417851","0.0-10.0-1.65","8dul","","","","","","531","p","<div></div>"
"audio-keyboard-response","148","421301","0.0-10.0-0.66","8dul","","","","","","null","null","audio_projekt/blueten1500bluten.wav"
"html-keyboard-response","149","423953","0.0-10.0-1.66","8dul","","","","","","2651","p","<div></div>"
"audio-keyboard-response","150","427801","0.0-10.0-0.67","8dul","","","","","","null","null","audio_projekt/stiel1500stuhl.wav"
"html-keyboard-response","151","428327","0.0-10.0-1.67","8dul","","","","","","525","p","<div></div>"
"audio-keyboard-response","152","432160","0.0-10.0-0.68","8dul","","","","","","null","null","audio_projekt/stuhl1500stuhl.wav"
"html-keyboard-response","153","432370","0.0-10.0-1.68","8dul","","","","","","208","q","<div></div>"
"audio-keyboard-response","154","435640","0.0-10.0-0.69","8dul","","","","","","null","null","audio_projekt/tour1500tuer.wav"
"html-keyboard-response","155","435985","0.0-10.0-1.69","8dul","","","","","","344","p","<div></div>"
"audio-keyboard-response","156","439900","0.0-10.0-0.70","8dul","","","","","","null","null","audio_projekt/siegel1500segel.wav"
"html-keyboard-response","157","440203","0.0-10.0-1.70","8dul","","","","","","302","p","<div></div>"
"audio-keyboard-response","158","443720","0.0-10.0-0.71","8dul","","","","","","null","null","audio_projekt/kiel1500kuehl.wav"
"html-keyboard-response","159","444025","0.0-10.0-1.71","8dul","","","","","","304","p","<div></div>"
"audio-keyboard-response","160","447421","0.0-10.0-0.72","8dul","","","","","","null","null","audio_projekt/buehne1500biene.wav"
"html-keyboard-response","161","447836","0.0-10.0-1.72","8dul","","","","","","414","p","<div></div>"
"audio-keyboard-response","162","451861","0.0-10.0-0.73","8dul","","","","","","null","null","audio_projekt/spuelen1500spielen.wav"
"html-keyboard-response","163","452009","0.0-10.0-1.73","8dul","","","","","","146","p","<div></div>"
"audio-keyboard-response","164","455282","0.0-10.0-0.74","8dul","","","","","","null","null","audio_projekt/tier1500tier.wav"
"html-keyboard-response","165","455798","0.0-10.0-1.74","8dul","","","","","","513","q","<div></div>"
"audio-keyboard-response","166","459721","0.0-10.0-0.75","8dul","","","","","","null","null","audio_projekt/segel1500segel.wav"
"html-keyboard-response","167","459788","0.0-10.0-1.75","8dul","","","","","","66","q","<div></div>"
"audio-keyboard-response","168","463181","0.0-10.0-0.76","8dul","","","","","","null","null","audio_projekt/biene1500biene.wav"
"html-keyboard-response","169","463363","0.0-10.0-1.76","8dul","","","","","","180","q","<div></div>"
"audio-keyboard-response","170","467441","0.0-10.0-0.77","8dul","","","","","","null","null","audio_projekt/spielen1500spulen.wav"
"html-keyboard-response","171","467536","0.0-10.0-1.77","8dul","","","","","","95","p","<div></div>"
"audio-keyboard-response","172","471060","0.0-10.0-0.78","8dul","","","","","","null","null","audio_projekt/kuehl1500kiel.wav"
"html-keyboard-response","173","471398","0.0-10.0-1.78","8dul","","","","","","336","p","<div></div>"
"audio-keyboard-response","174","474800","0.0-10.0-0.79","8dul","","","","","","null","null","audio_projekt/biene1500buehne.wav"
"html-keyboard-response","175","475034","0.0-10.0-1.79","8dul","","","","","","232","p","<div></div>"
"html-keyboard-response","176","566284","0.0-11.0","8dul","","","","","","90442"," ","<h2>Pause</h2><div class=""myDiv""><p>Gut gemacht! Jetzt k&ouml;nnen Sie eine kleine Pause machen.</p></div><div><img src=""pics/coffee.png"" title=""Machen Sie eine Pause..."" width=""150"" height=""150"" class=""center""></div><div style=""height:20px; width:100%""></div><p>Wenn Sie bereit sind, dr&uuml;cken Sie eine beliebige Taste, um fortzufahren.</p>"
"html-keyboard-response","177","584744","0.0-12.0","8dul","","","","","","18457"," ","<h2>Teil 2: Identifikationsaufgabe: Vorbereitung 1</h2><div class=""myDiv""><p>In diesem Teil des Experimentes werden Sie nur ein Wort h&ouml;ren. </p><p>Anschlie&szlig;end werden zwei Bilder gezeigt. W&auml;hlen Sie das Bild aus, das das Wort darstellt.</p><p>Bevor die Aufgabe beginnt, werden die Bilder mit den entsprechenden W&ouml;rtern angezeigt. Sie werden jedes Bild zweimal sehen.</p><p>Dr&uuml;cken Sie bitte eine beliebige Taste, um die Bilder zu sehen.</p>"
"audio-button-response","178","590179","0.0-13.0-0.0-0.0","8dul","","","","","","4956","0","audio_projekt/blueten.wav"
"audio-button-response","179","594215","0.0-13.0-0.0-0.1","8dul","","","","","","3868","0","audio_projekt/beten1.wav"
"audio-button-response","180","600026","0.0-13.0-0.0-0.2","8dul","","","","","","5640","0","audio_projekt/tuer.wav"
"audio-button-response","181","607599","0.0-13.0-0.0-0.3","8dul","","","","","","7364","0","audio_projekt/bluten.wav"
"audio-button-response","182","614204","0.0-13.0-0.0-0.4","8dul","","","","","","6435","0","audio_projekt/buehne.wav"
"audio-button-response","183","626118","0.0-13.0-0.0-0.5","8dul","","","","","","11747","0","audio_projekt/leder.wav"
"audio-button-response","184","631379","0.0-13.0-0.0-0.6","8dul","","","","","","5089","0","audio_projekt/bieten1.wav"
"audio-button-response","185","635367","0.0-13.0-0.0-0.7","8dul","","","","","","3815","0","audio_projekt/spulen.wav"
"audio-button-response","186","654453","0.0-13.0-0.0-0.8","8dul","","","","","","18923","0","audio_projekt/biene.wav"
"audio-button-response","187","656498","0.0-13.0-0.0-0.9","8dul","","","","","","1875","0","audio_projekt/segel.wav"
"audio-button-response","188","659483","0.0-13.0-0.0-0.10","8dul","","","","","","2807","0","audio_projekt/stuhl.wav"
"audio-button-response","189","663424","0.0-13.0-0.0-0.11","8dul","","","","","","3800","0","audio_projekt/tier.wav"
"audio-button-response","190","675022","0.0-13.0-0.0-0.12","8dul","","","","","","11407","0","audio_projekt/treffen2.wav"
"audio-button-response","191","681518","0.0-13.0-0.0-0.13","8dul","","","","","","6053","0","audio_projekt/stiel.wav"
"audio-button-response","192","684820","0.0-13.0-0.0-0.14","8dul","","","","","","3131","0","audio_projekt/siegel.wav"
"audio-button-response","193","687794","0.0-13.0-0.0-0.15","8dul","","","","","","2850","0","audio_projekt/tour.wav"
"audio-button-response","194","690178","0.0-13.0-0.0-0.16","8dul","","","","","","2174","0","audio_projekt/lieder.wav"
"audio-button-response","195","693103","0.0-13.0-0.0-0.17","8dul","","","","","","2721","0","audio_projekt/spuelen2.wav"
"audio-button-response","196","695843","0.0-13.0-0.0-0.18","8dul","","","","","","2587","0","audio_projekt/kiel.wav"
"audio-button-response","197","697960","0.0-13.0-0.0-0.19","8dul","","","","","","1745","0","audio_projekt/kuehl.wav"
"audio-button-response","198","699769","0.0-13.0-0.0-0.20","8dul","","","","","","1525","0","audio_projekt/spielen2.wav"
"audio-button-response","199","702069","0.0-13.0-0.0-0.21","8dul","","","","","","2072","0","audio_projekt/triefen1.wav"
"audio-button-response","200","703953","0.0-13.0-0.1-0.22","8dul","","","","","","1880","0","audio_projekt/blueten.wav"
"audio-button-response","201","705678","0.0-13.0-0.1-0.23","8dul","","","","","","1722","0","audio_projekt/beten1.wav"
"audio-button-response","202","707464","0.0-13.0-0.1-0.24","8dul","","","","","","1784","0","audio_projekt/tuer.wav"
"audio-button-response","203","709030","0.0-13.0-0.1-0.25","8dul","","","","","","1563","0","audio_projekt/bluten.wav"
"audio-button-response","204","710375","0.0-13.0-0.1-0.26","8dul","","","","","","1341","0","audio_projekt/buehne.wav"
"audio-button-response","205","711416","0.0-13.0-0.1-0.27","8dul","","","","","","1038","0","audio_projekt/leder.wav"
"audio-button-response","206","712455","0.0-13.0-0.1-0.28","8dul","","","","","","1036","0","audio_projekt/bieten1.wav"
"audio-button-response","207","713936","0.0-13.0-0.1-0.29","8dul","","","","","","1479","0","audio_projekt/spulen.wav"
"audio-button-response","208","714890","0.0-13.0-0.1-0.30","8dul","","","","","","952","0","audio_projekt/biene.wav"
"audio-button-response","209","715772","0.0-13.0-0.1-0.31","8dul","","","","","","879","0","audio_projekt/segel.wav"
"audio-button-response","210","716739","0.0-13.0-0.1-0.32","8dul","","","","","","965","0","audio_projekt/stuhl.wav"
"audio-button-response","211","717570","0.0-13.0-0.1-0.33","8dul","","","","","","828","0","audio_projekt/tier.wav"
"audio-button-response","212","718770","0.0-13.0-0.1-0.34","8dul","","","","","","1197","0","audio_projekt/treffen2.wav"
"audio-button-response","213","719738","0.0-13.0-0.1-0.35","8dul","","","","","","964","0","audio_projekt/stiel.wav"
"audio-button-response","214","720631","0.0-13.0-0.1-0.36","8dul","","","","","","889","0","audio_projekt/siegel.wav"
"audio-button-response","215","721645","0.0-13.0-0.1-0.37","8dul","","","","","","1011","0","audio_projekt/tour.wav"
"audio-button-response","216","722625","0.0-13.0-0.1-0.38","8dul","","","","","","975","0","audio_projekt/lieder.wav"
"audio-button-response","217","723346","0.0-13.0-0.1-0.39","8dul","","","","","","718","0","audio_projekt/spuelen2.wav"
"audio-button-response","218","724106","0.0-13.0-0.1-0.40","8dul","","","","","","757","0","audio_projekt/kiel.wav"
"audio-button-response","219","724986","0.0-13.0-0.1-0.41","8dul","","","","","","877","0","audio_projekt/kuehl.wav"
"audio-button-response","220","725671","0.0-13.0-0.1-0.42","8dul","","","","","","682","0","audio_projekt/spielen2.wav"
"audio-button-response","221","726406","0.0-13.0-0.1-0.43","8dul","","","","","","730","0","audio_projekt/triefen1.wav"
"html-keyboard-response","222","744958","0.0-14.0","8dul","","","","","","18550"," ","<h2>Teil 2: Identifikationsaufgabe: Vorbereitung 2</h2><div class=""myDiv""><p>Jetzt können Sie einen kurzen Probedurchlauf f&uuml;r diesen Teil des Experiments machen.</p><p>W&auml;hlen Sie das Bild aus, das das Wort darstellt. <ul><li>Dr&uuml;cken Sie die <b>Taste Q</b>, um das <b>linke</b> Bild auszuw&auml;hlen. Dr&uuml;cken Sie die <b>Taste P</b>, um das <b>rechte</b> Bild auszuw&auml;hlen.</li> <li>Sie haben 5 Sekunden Zeit, um sich f&uuml;r eines der Bilder zu entscheiden. </li><li>Bitte warten Sie, bis Sie <b>das ganze Wort gehört haben</b>, bevor Sie eine Taste drücken.</li></ul></p><p>Dr&uuml;cken Sie eine beliebige Taste, um den Probedurchlauf anzufangen.</p>"
"audio-keyboard-response","223","745773","0.0-15.0-0.0","8dul","","","","","","null","null","audio_projekt/treffen2.wav"
"image-keyboard-response","224","748487","0.0-15.0-1.0","8dul","","","","","","2711","q","pics/scaled/triefen_treffen.png"
"audio-keyboard-response","225","749912","0.0-15.0-0.1","8dul","","","","","","null","null","audio_projekt/beten1.wav"
"image-keyboard-response","226","752364","0.0-15.0-1.1","8dul","","","","","","2450","p","pics/scaled/bieten_beten.jpg"
"html-keyboard-response","227","755482","0.0-16.0","8dul","","","","","","2311"," ","<h2>Teil 2: Identifikationsaufgabe</h2><p>Jetzt sind Sie darauf vorbereitet, die Identifikationsaufgabe auszuführen.</p><p>Sind Sie bereit? Dann dr&uuml;cken Sie eine beliebige Taste, um anzufangen.</p>"
"audio-keyboard-response","228","756413","0.0-17.0-0.0","8dul","","","","","","null","null","audio_projekt/spulen.wav"
"image-keyboard-response","229","757300","0.0-17.0-1.0","8dul","","","","","","883","q","pics/scaled/spulen_spuelen.jpg"
"audio-keyboard-response","230","758793","0.0-17.0-0.1","8dul","","","","","","null","null","audio_projekt/lieder.wav"
"image-keyboard-response","231","759494","0.0-17.0-1.1","8dul","","","","","","698","p","pics/scaled/lieder_leder.jpg"
"audio-keyboard-response","232","760952","0.0-17.0-0.2","8dul","","","","","","null","null","audio_projekt/kuehl.wav"
"image-keyboard-response","233","761779","0.0-17.0-1.2","8dul","","","","","","822","q","pics/scaled/kiel_kuehl.jpg"
"audio-keyboard-response","234","763212","0.0-17.0-0.3","8dul","","","","","","null","null","audio_projekt/kuehl.wav"
"image-keyboard-response","235","764038","0.0-17.0-1.3","8dul","","","","","","824","q","pics/scaled/kiel_kuehl.jpg"
"audio-keyboard-response","236","765892","0.0-17.0-0.4","8dul","","","","","","null","null","audio_projekt/spielen.wav"
"image-keyboard-response","237","766172","0.0-17.0-1.4","8dul","","","","","","278","q","pics/scaled/spielen_spuelen.jpg"
"audio-keyboard-response","238","767513","0.0-17.0-0.5","8dul","","","","","","null","null","audio_projekt/tuer.wav"
"image-keyboard-response","239","768112","0.0-17.0-1.5","8dul","","","","","","596","p","pics/scaled/tuer_tour.jpg"
"audio-keyboard-response","240","769792","0.0-17.0-0.6","8dul","","","","","","null","null","audio_projekt/siegel.wav"
"image-keyboard-response","241","770344","0.0-17.0-1.6","8dul","","","","","","550","q","pics/scaled/siegel_segel.jpg"
"audio-keyboard-response","242","771773","0.0-17.0-0.7","8dul","","","","","","null","null","audio_projekt/blueten.wav"
"image-keyboard-response","243","773573","0.0-17.0-1.7","8dul","","","","","","1796","q","pics/scaled/bluten_blueten.jpg"
"audio-keyboard-response","244","774952","0.0-17.0-0.8","8dul","","","","","","null","null","audio_projekt/blueten.wav"
"image-keyboard-response","245","775625","0.0-17.0-1.8","8dul","","","","","","670","q","pics/scaled/bluten_blueten.jpg"
"audio-keyboard-response","246","777012","0.0-17.0-0.9","8dul","","","","","","null","null","audio_projekt/biene.wav"
"image-keyboard-response","247","778016","0.0-17.0-1.9","8dul","","","","","","1001","q","pics/scaled/biene_buehne.png"
"audio-keyboard-response","248","779752","0.0-17.0-0.10","8dul","","","","","","null","null","audio_projekt/spuelen2.wav"
"image-keyboard-response","249","781470","0.0-17.0-1.10","8dul","","","","","","1715","q","pics/scaled/spulen_spuelen.jpg"
"audio-keyboard-response","250","783093","0.0-17.0-0.11","8dul","","","","","","null","null","audio_projekt/stiel.wav"
"image-keyboard-response","251","784715","0.0-17.0-1.11","8dul","","","","","","1619","q","pics/scaled/stiel2_stuhl.jpg"
"audio-keyboard-response","252","786052","0.0-17.0-0.12","8dul","","","","","","null","null","audio_projekt/tier.wav"
"image-keyboard-response","253","786824","0.0-17.0-1.12","8dul","","","","","","769","q","pics/scaled/tier_tour.jpg"
"audio-keyboard-response","254","788172","0.0-17.0-0.13","8dul","","","","","","null","null","audio_projekt/tour.wav"
"image-keyboard-response","255","788790","0.0-17.0-1.13","8dul","","","","","","617","p","pics/scaled/tuer_tour.jpg"
"audio-keyboard-response","256","790252","0.0-17.0-0.14","8dul","","","","","","null","null","audio_projekt/kiel.wav"
"image-keyboard-response","257","791019","0.0-17.0-1.14","8dul","","","","","","765","q","pics/scaled/kiel_kuehl.jpg"
"audio-keyboard-response","258","792432","0.0-17.0-0.15","8dul","","","","","","null","null","audio_projekt/buehne.wav"
"image-keyboard-response","259","793804","0.0-17.0-1.15","8dul","","","","","","1367","p","pics/scaled/biene_buehne.png"
"audio-keyboard-response","260","795432","0.0-17.0-0.16","8dul","","","","","","null","null","audio_projekt/stuhl.wav"
"image-keyboard-response","261","795981","0.0-17.0-1.16","8dul","","","","","","546","p","pics/scaled/stiel2_stuhl.jpg"
"audio-keyboard-response","262","797471","0.0-17.0-0.17","8dul","","","","","","null","null","audio_projekt/lieder.wav"
"image-keyboard-response","263","798819","0.0-17.0-1.17","8dul","","","","","","1345","p","pics/scaled/lieder_leder.jpg"
"audio-keyboard-response","264","800153","0.0-17.0-0.18","8dul","","","","","","null","null","audio_projekt/tier.wav"
"image-keyboard-response","265","801570","0.0-17.0-1.18","8dul","","","","","","1414","q","pics/scaled/tier_tour.jpg"
"audio-keyboard-response","266","803192","0.0-17.0-0.19","8dul","","","","","","null","null","audio_projekt/stiel.wav"
"image-keyboard-response","267","804480","0.0-17.0-1.19","8dul","","","","","","1285","q","pics/scaled/stiel2_stuhl.jpg"
"audio-keyboard-response","268","805852","0.0-17.0-0.20","8dul","","","","","","null","null","audio_projekt/tour.wav"
"image-keyboard-response","269","807009","0.0-17.0-1.20","8dul","","","","","","1153","p","pics/scaled/tier_tour.jpg"
"audio-keyboard-response","270","808753","0.0-17.0-0.21","8dul","","","","","","null","null","audio_projekt/spulen.wav"
"image-keyboard-response","271","809968","0.0-17.0-1.21","8dul","","","","","","1213","q","pics/scaled/spielen_spulen.jpg"
"audio-keyboard-response","272","811453","0.0-17.0-0.22","8dul","","","","","","null","null","audio_projekt/buehne.wav"
"image-keyboard-response","273","812810","0.0-17.0-1.22","8dul","","","","","","1354","q","pics/scaled/biene_buehne.png"
"audio-keyboard-response","274","814552","0.0-17.0-0.23","8dul","","","","","","null","null","audio_projekt/spuelen2.wav"
"image-keyboard-response","275","815308","0.0-17.0-1.23","8dul","","","","","","753","p","pics/scaled/spulen_spuelen.jpg"
"audio-keyboard-response","276","816814","0.0-17.0-0.24","8dul","","","","","","null","null","audio_projekt/leder.wav"
"image-keyboard-response","277","817680","0.0-17.0-1.24","8dul","","","","","","862","p","pics/scaled/lieder_leder.jpg"
"audio-keyboard-response","278","819374","0.0-17.0-0.25","8dul","","","","","","null","null","audio_projekt/spuelen2.wav"
"image-keyboard-response","279","819837","0.0-17.0-1.25","8dul","","","","","","460","p","pics/scaled/spielen_spuelen.jpg"
"audio-keyboard-response","280","821314","0.0-17.0-0.26","8dul","","","","","","null","null","audio_projekt/leder.wav"
"image-keyboard-response","281","821917","0.0-17.0-1.26","8dul","","","","","","599","q","pics/scaled/lieder_leder.jpg"
"audio-keyboard-response","282","823294","0.0-17.0-0.27","8dul","","","","","","null","null","audio_projekt/buehne.wav"
"image-keyboard-response","283","824366","0.0-17.0-1.27","8dul","","","","","","1069","q","pics/scaled/biene_buehne.png"
"audio-keyboard-response","284","825793","0.0-17.0-0.28","8dul","","","","","","null","null","audio_projekt/bluten.wav"
"image-keyboard-response","285","827694","0.0-17.0-1.28","8dul","","","","","","1896","q","pics/scaled/bluten_blueten.jpg"
"audio-keyboard-response","286","829393","0.0-17.0-0.29","8dul","","","","","","null","null","audio_projekt/siegel.wav"
"image-keyboard-response","287","830094","0.0-17.0-1.29","8dul","","","","","","699","p","pics/scaled/siegel_segel.jpg"
"audio-keyboard-response","288","831434","0.0-17.0-0.30","8dul","","","","","","null","null","audio_projekt/tour.wav"
"image-keyboard-response","289","832415","0.0-17.0-1.30","8dul","","","","","","977","q","pics/scaled/tier_tour.jpg"
"audio-keyboard-response","290","833732","0.0-17.0-0.31","8dul","","","","","","null","null","audio_projekt/tour.wav"
"image-keyboard-response","291","834616","0.0-17.0-1.31","8dul","","","","","","881","p","pics/scaled/tuer_tour.jpg"
"audio-keyboard-response","292","836113","0.0-17.0-0.32","8dul","","","","","","null","null","audio_projekt/lieder.wav"
"image-keyboard-response","293","838016","0.0-17.0-1.32","8dul","","","","","","1901","p","pics/scaled/lieder_leder.jpg"
"audio-keyboard-response","294","839494","0.0-17.0-0.33","8dul","","","","","","null","null","audio_projekt/kiel.wav"
"image-keyboard-response","295","840605","0.0-17.0-1.33","8dul","","","","","","1107","p","pics/scaled/kiel_kuehl.jpg"
"audio-keyboard-response","296","841953","0.0-17.0-0.34","8dul","","","","","","null","null","audio_projekt/tuer.wav"
"image-keyboard-response","297","842744","0.0-17.0-1.34","8dul","","","","","","790","p","pics/scaled/tuer_tour.jpg"
"audio-keyboard-response","298","844093","0.0-17.0-0.35","8dul","","","","","","null","null","audio_projekt/tier.wav"
"image-keyboard-response","299","844833","0.0-17.0-1.35","8dul","","","","","","737","q","pics/scaled/tier_tour.jpg"
"audio-keyboard-response","300","846132","0.0-17.0-0.36","8dul","","","","","","null","null","audio_projekt/tuer.wav"
"image-keyboard-response","301","847033","0.0-17.0-1.36","8dul","","","","","","898","q","pics/scaled/tuer_tour.jpg"
"audio-keyboard-response","302","848793","0.0-17.0-0.37","8dul","","","","","","null","null","audio_projekt/spulen.wav"
"image-keyboard-response","303","849355","0.0-17.0-1.37","8dul","","","","","","559","q","pics/scaled/spulen_spuelen.jpg"
"audio-keyboard-response","304","850693","0.0-17.0-0.38","8dul","","","","","","null","null","audio_projekt/tour.wav"
"image-keyboard-response","305","851944","0.0-17.0-1.38","8dul","","","","","","1249","p","pics/scaled/tier_tour.jpg"
"audio-keyboard-response","306","853653","0.0-17.0-0.39","8dul","","","","","","null","null","audio_projekt/spulen.wav"
"image-keyboard-response","307","855166","0.0-17.0-1.39","8dul","","","","","","1510","q","pics/scaled/spielen_spulen.jpg"
"audio-keyboard-response","308","856893","0.0-17.0-0.40","8dul","","","","","","null","null","audio_projekt/spuelen2.wav"
"image-keyboard-response","309","857593","0.0-17.0-1.40","8dul","","","","","","698","p","pics/scaled/spielen_spuelen.jpg"
"audio-keyboard-response","310","859274","0.0-17.0-0.41","8dul","","","","","","null","null","audio_projekt/spuelen2.wav"
"image-keyboard-response","311","859988","0.0-17.0-1.41","8dul","","","","","","711","p","pics/scaled/spulen_spuelen.jpg"
"audio-keyboard-response","312","861294","0.0-17.0-0.42","8dul","","","","","","null","null","audio_projekt/tour.wav"
"image-keyboard-response","313","862876","0.0-17.0-1.42","8dul","","","","","","1578","q","pics/scaled/tuer_tour.jpg"
"audio-keyboard-response","314","864373","0.0-17.0-0.43","8dul","","","","","","null","null","audio_projekt/leder.wav"
"image-keyboard-response","315","865105","0.0-17.0-1.43","8dul","","","","","","730","p","pics/scaled/lieder_leder.jpg"
"audio-keyboard-response","316","866815","0.0-17.0-0.44","8dul","","","","","","null","null","audio_projekt/spielen.wav"
"image-keyboard-response","317","867187","0.0-17.0-1.44","8dul","","","","","","368","q","pics/scaled/spielen_spuelen.jpg"
"audio-keyboard-response","318","868953","0.0-17.0-0.45","8dul","","","","","","null","null","audio_projekt/spielen2.wav"
"image-keyboard-response","319","869100","0.0-17.0-1.45","8dul","","","","","","145","p","pics/scaled/spielen_spulen.jpg"
"audio-keyboard-response","320","870573","0.0-17.0-0.46","8dul","","","","","","null","null","audio_projekt/kuehl.wav"
"image-keyboard-response","321","871207","0.0-17.0-1.46","8dul","","","","","","632","q","pics/scaled/kiel_kuehl.jpg"
"audio-keyboard-response","322","872634","0.0-17.0-0.47","8dul","","","","","","null","null","audio_projekt/biene.wav"
"image-keyboard-response","323","873363","0.0-17.0-1.47","8dul","","","","","","726","p","pics/scaled/biene_buehne.png"
"audio-keyboard-response","324","875054","0.0-17.0-0.48","8dul","","","","","","null","null","audio_projekt/segel.wav"
"image-keyboard-response","325","877364","0.0-17.0-1.48","8dul","","","","","","2306","p","pics/scaled/siegel_segel.jpg"
"audio-keyboard-response","326","878794","0.0-17.0-0.49","8dul","","","","","","null","null","audio_projekt/blueten.wav"
"image-keyboard-response","327","880633","0.0-17.0-1.49","8dul","","","","","","1833","q","pics/scaled/bluten_blueten.jpg"
"audio-keyboard-response","328","882312","0.0-17.0-0.50","8dul","","","","","","null","null","audio_projekt/siegel.wav"
"image-keyboard-response","329","883530","0.0-17.0-1.50","8dul","","","","","","1215","p","pics/scaled/siegel_segel.jpg"
"audio-keyboard-response","330","884954","0.0-17.0-0.51","8dul","","","","","","null","null","audio_projekt/bluten.wav"
"image-keyboard-response","331","887041","0.0-17.0-1.51","8dul","","","","","","2084","q","pics/scaled/bluten_blueten.jpg"
"audio-keyboard-response","332","888433","0.0-17.0-0.52","8dul","","","","","","null","null","audio_projekt/biene.wav"
"image-keyboard-response","333","889643","0.0-17.0-1.52","8dul","","","","","","1208","q","pics/scaled/biene_buehne.png"
"audio-keyboard-response","334","891433","0.0-17.0-0.53","8dul","","","","","","null","null","audio_projekt/spielen.wav"
"image-keyboard-response","335","891718","0.0-17.0-1.53","8dul","","","","","","282","q","pics/scaled/spielen_spuelen.jpg"
"audio-keyboard-response","336","893353","0.0-17.0-0.54","8dul","","","","","","null","null","audio_projekt/stiel.wav"
"image-keyboard-response","337","895115","0.0-17.0-1.54","8dul","","","","","","1760","q","pics/scaled/stiel2_stuhl.jpg"
"audio-keyboard-response","338","896753","0.0-17.0-0.55","8dul","","","","","","null","null","audio_projekt/stuhl.wav"
"image-keyboard-response","339","896995","0.0-17.0-1.55","8dul","","","","","","238","p","pics/scaled/stiel2_stuhl.jpg"
"audio-keyboard-response","340","898773","0.0-17.0-0.56","8dul","","","","","","null","null","audio_projekt/spielen2.wav"
"image-keyboard-response","341","898807","0.0-17.0-1.56","8dul","","","","","","29","p","pics/scaled/spielen_spulen.jpg"
"audio-keyboard-response","342","900213","0.0-17.0-0.57","8dul","","","","","","null","null","audio_projekt/bluten.wav"
"image-keyboard-response","343","900916","0.0-17.0-1.57","8dul","","","","","","701","p","pics/scaled/bluten_blueten.jpg"
"audio-keyboard-response","344","902514","0.0-17.0-0.58","8dul","","","","","","null","null","audio_projekt/stuhl.wav"
"image-keyboard-response","345","903052","0.0-17.0-1.58","8dul","","","","","","534","p","pics/scaled/stiel2_stuhl.jpg"
"audio-keyboard-response","346","904733","0.0-17.0-0.59","8dul","","","","","","null","null","audio_projekt/segel.wav"
"image-keyboard-response","347","907338","0.0-17.0-1.59","8dul","","","","","","2603","p","pics/scaled/siegel_segel.jpg"
"audio-keyboard-response","348","909114","0.0-17.0-0.60","8dul","","","","","","null","null","audio_projekt/spulen.wav"
"image-keyboard-response","349","909593","0.0-17.0-1.60","8dul","","","","","","476","q","pics/scaled/spielen_spulen.jpg"
"audio-keyboard-response","350","911133","0.0-17.0-0.61","8dul","","","","","","null","null","audio_projekt/kiel.wav"
"image-keyboard-response","351","911690","0.0-17.0-1.61","8dul","","","","","","552","p","pics/scaled/kiel_kuehl.jpg"
"audio-keyboard-response","352","913354","0.0-17.0-0.62","8dul","","","","","","null","null","audio_projekt/segel.wav"
"image-keyboard-response","353","913964","0.0-17.0-1.62","8dul","","","","","","607","q","pics/scaled/siegel_segel.jpg"
"audio-keyboard-response","354","915693","0.0-17.0-0.63","8dul","","","","","","null","null","audio_projekt/spuelen2.wav"
"image-keyboard-response","355","916267","0.0-17.0-1.63","8dul","","","","","","572","p","pics/scaled/spielen_spuelen.jpg"
"audio-keyboard-response","356","917972","0.0-17.0-0.64","8dul","","","","","","null","null","audio_projekt/spulen.wav"
"image-keyboard-response","357","919400","0.0-17.0-1.64","8dul","","","","","","1426","q","pics/scaled/spulen_spuelen.jpg"
"audio-keyboard-response","358","921153","0.0-17.0-0.65","8dul","","","","","","null","null","audio_projekt/spielen2.wav"
"image-keyboard-response","359","921234","0.0-17.0-1.65","8dul","","","","","","79","p","pics/scaled/spielen_spulen.jpg"
