"trial_type","trial_index","time_elapsed","internal_node_id","subject","success","timeout","failed_images","failed_audio","failed_video","rt","response","stimulus"
"pavlovia","0","647","0.0-0.0","c8ge","","","","","","","",""
"preload","1","648","0.0-1.0","c8ge","true","false","[]","[]","[]","","",""
"survey-html-form","2","4287","0.0-2.0","c8ge","","","","","","3638","{""code"":""664604f35aef1fc1e36705cb""}",""
"html-button-response","3","7308","0.0-3.0","c8ge","","","","","","3019","0","<h2>Willkommen zum Experiment!</h2><div class=""myDiv""><p>Vielen Dank f&uuml;r Ihr Interesse an dieser Studie. Wir bitten Sie <strong>Kopfh&ouml;rer</strong> daf&uuml;r zu verwenden.</p></div><div><img src=""pics/headphones.png"" title=""Earbuds are also fine"" width=""250"" height=""200"" class=""center""></div><div class=""myDiv""><p>Das Experiment besteht aus zwei Teilen:</p> <ol> <li>Eine <strong>Unterscheidungsaufgabe,</strong> in der Sie zwei W&ouml;rter h&ouml;ren. Im Anschluss sollen Sie feststellen, ob diese W&ouml;rter gleich oder unterschiedlich sind;</li><li>Eine <strong>Identifikationsaufgabe,</strong> in der Sie nur ein Wort h&ouml;ren, wobei Ihnen aber zwei Bilder gezeigt werden. Ihre Aufgabe ist es, dasjenige Bild auszuw&auml;hlen, das das geh&ouml;rte Wort darstellt.</li> </ol><p>Wir bitten Sie um Ihre Zustimmung, bevor wir Ihre Daten sammeln und verwenden. Bitte klicken Sie auf den ""Start""-Button, um Ihre Zustimmung zu geben. Anschlie&szlig;end werden wir ein paar Fragen zu Ihren Sprachkenntnissen stellen. Danach k&ouml;nnen Sie das Experiment starten. </p></div>"
"survey-html-form","4","10110","0.0-4.0","c8ge","","","","","","2800","{""zustimmung"":""on""}",""
"survey-html-form","5","81678","0.0-5.0","c8ge","","","","","","71564","{""native"":""Englisch"",""AOL"":""25"",""LearnType5"":""classesabroad"",""which"":"""",""AOA"":""25"",""timespent"":""7 Jahre""}",""
"audio-button-response","6","86287","0.0-6.0-0.0","c8ge","","","","","","4470","0","audio_projekt/treffen1.wav"
"audio-button-response","7","87228","0.0-6.1-0.1","c8ge","","","","","","940","1","audio_projekt/treffen1.wav"
"html-keyboard-response","8","104475","0.0-7.0","c8ge","","","","","","17243","q","<h2>Teil 1: Unterscheidungsaufgabe</h2><div class=""myDiv""><p>In diesem Teil des Experimentes werden Sie im Abstand von 1.5 Sekunden <b>zwei W&ouml;rter</b> h&ouml;ren.</p><ul><li>Ihre Aufgabe ist es, festzustellen, ob diese W&ouml;rter <b>gleich oder unterschiedlich</b> sind. Wenn es einen Unterschied gibt, besteht dieser nur aus einem Vokal. </li> <li>Dr&uuml;cken Sie die <b>Taste Q</b>, wenn die W&ouml;rter gleich sind. Dr&uuml;cken Sie die <b>Taste P</b>, wenn die W&ouml;rter unterschiedlich sind.</li><li>Bitte warten Sie, bis Sie <b>beide Wörter gehört haben</b>, bevor Sie eine Taste drücken. Aber Achtung: Sie haben nur <b>5 Sekunden</b>, um eine Option auszuw&auml;hlen! &Uuml;berlegen Sie daher bitte nicht zu lange.</li></ul><br><p>Dr&uuml;cken Sie eine beliebige Taste, um ein paar Testversuche zu machen.</p></ul></div>"
"audio-keyboard-response","9","107734","0.0-8.0-0.0","c8ge","","","","","","null","null","audio_projekt/treffen1500triefen.wav"
"html-keyboard-response","10","107854","0.0-8.0-1.0","c8ge","","","","","","119","p","<div></div>"
"audio-keyboard-response","11","111705","0.0-8.0-0.1","c8ge","","","","","","null","null","audio_projekt/treffen1500treffen.wav"
"html-keyboard-response","12","111776","0.0-8.0-1.1","c8ge","","","","","","70","q","<div></div>"
"html-keyboard-response","13","114649","0.0-9.0","c8ge","","","","","","2072"," ","<p>Gut! Jetzt f&auml;ngt der erste Teil des Experiments an. Dieser Teil dauert ca. 10 Minuten.</p><br><p>Bitte dr&uuml;cken Sie eine beliebige Taste, um fortzufahren.<div style=""height:30px; width:100%""></div>"
"audio-keyboard-response","14","117394","0.0-10.0-0.0","c8ge","","","","","","null","null","audio_projekt/biene1500buehne.wav"
"html-keyboard-response","15","117879","0.0-10.0-1.0","c8ge","","","","","","484","p","<div></div>"
"audio-keyboard-response","16","121272","0.0-10.0-0.1","c8ge","","","","","","null","null","audio_projekt/tour1500tier.wav"
"html-keyboard-response","17","121455","0.0-10.0-1.1","c8ge","","","","","","183","p","<div></div>"
"audio-keyboard-response","18","125521","0.0-10.0-0.2","c8ge","","","","","","null","null","audio_projekt/segel1500segel.wav"
"html-keyboard-response","19","125687","0.0-10.0-1.2","c8ge","","","","","","165","q","<div></div>"
"audio-keyboard-response","20","129236","0.0-10.0-0.3","c8ge","","","","","","null","null","audio_projekt/biene1500biene.wav"
"html-keyboard-response","21","129486","0.0-10.0-1.3","c8ge","","","","","","249","q","<div></div>"
"audio-keyboard-response","22","133045","0.0-10.0-0.4","c8ge","","","","","","null","null","audio_projekt/buehne1500biene.wav"
"html-keyboard-response","23","133194","0.0-10.0-1.4","c8ge","","","","","","148","p","<div></div>"
"audio-keyboard-response","24","136853","0.0-10.0-0.5","c8ge","","","","","","null","null","audio_projekt/kiel1500kiel.wav"
"html-keyboard-response","25","137120","0.0-10.0-1.5","c8ge","","","","","","267","q","<div></div>"
"audio-keyboard-response","26","141334","0.0-10.0-0.6","c8ge","","","","","","null","null","audio_projekt/spulen1500spielen.wav"
"html-keyboard-response","27","141405","0.0-10.0-1.6","c8ge","","","","","","70","p","<div></div>"
"audio-keyboard-response","28","145375","0.0-10.0-0.7","c8ge","","","","","","null","null","audio_projekt/stiel1500stiel.wav"
"html-keyboard-response","29","145622","0.0-10.0-1.7","c8ge","","","","","","246","q","<div></div>"
"audio-keyboard-response","30","149810","0.0-10.0-0.8","c8ge","","","","","","null","null","audio_projekt/spuelen1500spielen.wav"
"html-keyboard-response","31","149992","0.0-10.0-1.8","c8ge","","","","","","181","p","<div></div>"
"audio-keyboard-response","32","153966","0.0-10.0-0.9","c8ge","","","","","","null","null","audio_projekt/stuhl1500stiel.wav"
"html-keyboard-response","33","154162","0.0-10.0-1.9","c8ge","","","","","","195","p","<div></div>"
"audio-keyboard-response","34","158332","0.0-10.0-0.10","c8ge","","","","","","null","null","audio_projekt/spielen1500spuelen.wav"
"html-keyboard-response","35","159142","0.0-10.0-1.10","c8ge","","","","","","810","p","<div></div>"
"audio-keyboard-response","36","162534","0.0-10.0-0.11","c8ge","","","","","","null","null","audio_projekt/tuer1500tour.wav"
"html-keyboard-response","37","163625","0.0-10.0-1.11","c8ge","","","","","","1090","p","<div></div>"
"audio-keyboard-response","38","167295","0.0-10.0-0.12","c8ge","","","","","","null","null","audio_projekt/kuehl1500kiel.wav"
"html-keyboard-response","39","167549","0.0-10.0-1.12","c8ge","","","","","","254","p","<div></div>"
"audio-keyboard-response","40","170778","0.0-10.0-0.13","c8ge","","","","","","null","null","audio_projekt/tour1500tier.wav"
"html-keyboard-response","41","170972","0.0-10.0-1.13","c8ge","","","","","","194","p","<div></div>"
"audio-keyboard-response","42","174633","0.0-10.0-0.14","c8ge","","","","","","null","null","audio_projekt/kiel1500kuehl.wav"
"html-keyboard-response","43","175086","0.0-10.0-1.14","c8ge","","","","","","452","p","<div></div>"
"audio-keyboard-response","44","178975","0.0-10.0-0.15","c8ge","","","","","","null","null","audio_projekt/segel1500segel.wav"
"html-keyboard-response","45","179194","0.0-10.0-1.15","c8ge","","","","","","219","q","<div></div>"
"audio-keyboard-response","46","182783","0.0-10.0-0.16","c8ge","","","","","","null","null","audio_projekt/blueten1500blueten.wav"
"html-keyboard-response","47","183087","0.0-10.0-1.16","c8ge","","","","","","303","q","<div></div>"
"audio-keyboard-response","48","186475","0.0-10.0-0.17","c8ge","","","","","","null","null","audio_projekt/tier1500tour.wav"
"html-keyboard-response","49","187316","0.0-10.0-1.17","c8ge","","","","","","840","p","<div></div>"
"audio-keyboard-response","50","190818","0.0-10.0-0.18","c8ge","","","","","","null","null","audio_projekt/kuehl1500kiel.wav"
"html-keyboard-response","51","191112","0.0-10.0-1.18","c8ge","","","","","","293","p","<div></div>"
"audio-keyboard-response","52","194765","0.0-10.0-0.19","c8ge","","","","","","null","null","audio_projekt/kuehl1500kuehl.wav"
"html-keyboard-response","53","194972","0.0-10.0-1.19","c8ge","","","","","","207","q","<div></div>"
"audio-keyboard-response","54","198573","0.0-10.0-0.20","c8ge","","","","","","null","null","audio_projekt/bluten1500blueten.wav"
"html-keyboard-response","55","198892","0.0-10.0-1.20","c8ge","","","","","","318","p","<div></div>"
"audio-keyboard-response","56","202614","0.0-10.0-0.21","c8ge","","","","","","null","null","audio_projekt/lieder1500leder.wav"
"html-keyboard-response","57","202833","0.0-10.0-1.21","c8ge","","","","","","218","p","<div></div>"
"audio-keyboard-response","58","206886","0.0-10.0-0.22","c8ge","","","","","","null","null","audio_projekt/spulen1500spielen.wav"
"html-keyboard-response","59","207070","0.0-10.0-1.22","c8ge","","","","","","183","p","<div></div>"
"audio-keyboard-response","60","211298","0.0-10.0-0.23","c8ge","","","","","","null","null","audio_projekt/spielen1500spulen.wav"
"html-keyboard-response","61","211325","0.0-10.0-1.23","c8ge","","","","","","26","p","<div></div>"
"audio-keyboard-response","62","215342","0.0-10.0-0.24","c8ge","","","","","","null","null","audio_projekt/spielen1500spuelen.wav"
"html-keyboard-response","63","215433","0.0-10.0-1.24","c8ge","","","","","","91","p","<div></div>"
"audio-keyboard-response","64","218822","0.0-10.0-0.25","c8ge","","","","","","null","null","audio_projekt/tour1500tour.wav"
"html-keyboard-response","65","219031","0.0-10.0-1.25","c8ge","","","","","","208","q","<div></div>"
"audio-keyboard-response","66","223001","0.0-10.0-0.26","c8ge","","","","","","null","null","audio_projekt/stuhl1500stuhl.wav"
"html-keyboard-response","67","223089","0.0-10.0-1.26","c8ge","","","","","","87","q","<div></div>"
"audio-keyboard-response","68","227158","0.0-10.0-0.27","c8ge","","","","","","null","null","audio_projekt/segel1500siegel.wav"
"html-keyboard-response","69","228161","0.0-10.0-1.27","c8ge","","","","","","1003","p","<div></div>"
"audio-keyboard-response","70","231407","0.0-10.0-0.28","c8ge","","","","","","null","null","audio_projekt/tuer1500tour.wav"
"html-keyboard-response","71","232523","0.0-10.0-1.28","c8ge","","","","","","1115","p","<div></div>"
"audio-keyboard-response","72","236702","0.0-10.0-0.29","c8ge","","","","","","null","null","audio_projekt/spielen1500spielen.wav"
"html-keyboard-response","73","237078","0.0-10.0-1.29","c8ge","","","","","","376","q","<div></div>"
"audio-keyboard-response","74","241044","0.0-10.0-0.30","c8ge","","","","","","null","null","audio_projekt/stiel1500stuhl.wav"
"html-keyboard-response","75","241126","0.0-10.0-1.30","c8ge","","","","","","82","p","<div></div>"
"audio-keyboard-response","76","245131","0.0-10.0-0.31","c8ge","","","","","","null","null","audio_projekt/spuelen1500spulen.wav"
"html-keyboard-response","77","245593","0.0-10.0-1.31","c8ge","","","","","","462","p","<div></div>"
"audio-keyboard-response","78","249659","0.0-10.0-0.32","c8ge","","","","","","null","null","audio_projekt/siegel1500siegel.wav"
"html-keyboard-response","79","250093","0.0-10.0-1.32","c8ge","","","","","","433","q","<div></div>"
"audio-keyboard-response","80","254280","0.0-10.0-0.33","c8ge","","","","","","null","null","audio_projekt/spuelen1500spuelen.wav"
"html-keyboard-response","81","254364","0.0-10.0-1.33","c8ge","","","","","","83","q","<div></div>"
"audio-keyboard-response","82","258436","0.0-10.0-0.34","c8ge","","","","","","null","null","audio_projekt/siegel1500segel.wav"
"html-keyboard-response","83","258439","0.0-10.0-1.34","c8ge","","","","","","2","p","<div></div>"
"audio-keyboard-response","84","261849","0.0-10.0-0.35","c8ge","","","","","","null","null","audio_projekt/tier1500tier.wav"
"html-keyboard-response","85","262385","0.0-10.0-1.35","c8ge","","","","","","535","q","<div></div>"
"audio-keyboard-response","86","265936","0.0-10.0-0.36","c8ge","","","","","","null","null","audio_projekt/buehne1500buehne.wav"
"html-keyboard-response","87","267036","0.0-10.0-1.36","c8ge","","","","","","1099","q","<div></div>"
"audio-keyboard-response","88","270743","0.0-10.0-0.37","c8ge","","","","","","null","null","audio_projekt/leder1500lieder.wav"
"html-keyboard-response","89","271535","0.0-10.0-1.37","c8ge","","","","","","792","p","<div></div>"
"audio-keyboard-response","90","275433","0.0-10.0-0.38","c8ge","","","","","","null","null","audio_projekt/segel1500siegel.wav"
"html-keyboard-response","91","276344","0.0-10.0-1.38","c8ge","","","","","","910","p","<div></div>"
"audio-keyboard-response","92","280356","0.0-10.0-0.39","c8ge","","","","","","null","null","audio_projekt/spulen1500spuelen.wav"
"html-keyboard-response","93","281280","0.0-10.0-1.39","c8ge","","","","","","923","p","<div></div>"
"audio-keyboard-response","94","285070","0.0-10.0-0.40","c8ge","","","","","","null","null","audio_projekt/stiel1500stuhl.wav"
"html-keyboard-response","95","285524","0.0-10.0-1.40","c8ge","","","","","","453","p","<div></div>"
"audio-keyboard-response","96","289226","0.0-10.0-0.41","c8ge","","","","","","null","null","audio_projekt/leder1500leder.wav"
"html-keyboard-response","97","289995","0.0-10.0-1.41","c8ge","","","","","","768","q","<div></div>"
"audio-keyboard-response","98","293848","0.0-10.0-0.42","c8ge","","","","","","null","null","audio_projekt/spuelen1500spulen.wav"
"html-keyboard-response","99","294704","0.0-10.0-1.42","c8ge","","","","","","856","p","<div></div>"
"audio-keyboard-response","100","298097","0.0-10.0-0.43","c8ge","","","","","","null","null","audio_projekt/tour1500tuer.wav"
"html-keyboard-response","101","299219","0.0-10.0-1.43","c8ge","","","","","","1122","p","<div></div>"
"audio-keyboard-response","102","302927","0.0-10.0-0.44","c8ge","","","","","","null","null","audio_projekt/lieder1500lieder.wav"
"html-keyboard-response","103","303836","0.0-10.0-1.44","c8ge","","","","","","908","q","<div></div>"
"audio-keyboard-response","104","307362","0.0-10.0-0.45","c8ge","","","","","","null","null","audio_projekt/leder1500leder.wav"
"html-keyboard-response","105","308108","0.0-10.0-1.45","c8ge","","","","","","745","q","<div></div>"
"audio-keyboard-response","106","311356","0.0-10.0-0.46","c8ge","","","","","","null","null","audio_projekt/tier1500tour.wav"
"html-keyboard-response","107","312276","0.0-10.0-1.46","c8ge","","","","","","919","p","<div></div>"
"audio-keyboard-response","108","315814","0.0-10.0-0.47","c8ge","","","","","","null","null","audio_projekt/lieder1500lieder.wav"
"html-keyboard-response","109","316381","0.0-10.0-1.47","c8ge","","","","","","566","q","<div></div>"
"audio-keyboard-response","110","320180","0.0-10.0-0.48","c8ge","","","","","","null","null","audio_projekt/stuhl1500stiel.wav"
"html-keyboard-response","111","320939","0.0-10.0-1.48","c8ge","","","","","","758","p","<div></div>"
"audio-keyboard-response","112","324174","0.0-10.0-0.49","c8ge","","","","","","null","null","audio_projekt/tier1500tier.wav"
"html-keyboard-response","113","325068","0.0-10.0-1.49","c8ge","","","","","","893","q","<div></div>"
"audio-keyboard-response","114","328911","0.0-10.0-0.50","c8ge","","","","","","null","null","audio_projekt/spulen1500spuelen.wav"
"html-keyboard-response","115","329629","0.0-10.0-1.50","c8ge","","","","","","718","p","<div></div>"
"audio-keyboard-response","116","333021","0.0-10.0-0.51","c8ge","","","","","","null","null","audio_projekt/buehne1500biene.wav"
"html-keyboard-response","117","334051","0.0-10.0-1.51","c8ge","","","","","","1030","p","<div></div>"
"audio-keyboard-response","118","338060","0.0-10.0-0.52","c8ge","","","","","","null","null","audio_projekt/spielen1500spielen.wav"
"html-keyboard-response","119","338912","0.0-10.0-1.52","c8ge","","","","","","851","q","<div></div>"
"audio-keyboard-response","120","342147","0.0-10.0-0.53","c8ge","","","","","","null","null","audio_projekt/tour1500tuer.wav"
"html-keyboard-response","121","342845","0.0-10.0-1.53","c8ge","","","","","","698","p","<div></div>"
"audio-keyboard-response","122","346257","0.0-10.0-0.54","c8ge","","","","","","null","null","audio_projekt/tuer1500tuer.wav"
"html-keyboard-response","123","347133","0.0-10.0-1.54","c8ge","","","","","","876","q","<div></div>"
"audio-keyboard-response","124","350506","0.0-10.0-0.55","c8ge","","","","","","null","null","audio_projekt/buehne1500buehne.wav"
"html-keyboard-response","125","351382","0.0-10.0-1.55","c8ge","","","","","","876","q","<div></div>"
"audio-keyboard-response","126","354988","0.0-10.0-0.56","c8ge","","","","","","null","null","audio_projekt/blueten1500bluten.wav"
"html-keyboard-response","127","355868","0.0-10.0-1.56","c8ge","","","","","","880","p","<div></div>"
"audio-keyboard-response","128","360096","0.0-10.0-0.57","c8ge","","","","","","null","null","audio_projekt/spulen1500spulen.wav"
"html-keyboard-response","129","360705","0.0-10.0-1.57","c8ge","","","","","","608","q","<div></div>"
"audio-keyboard-response","130","364206","0.0-10.0-0.58","c8ge","","","","","","null","null","audio_projekt/kiel1500kiel.wav"
"html-keyboard-response","131","365236","0.0-10.0-1.58","c8ge","","","","","","1028","q","<div></div>"
"audio-keyboard-response","132","369129","0.0-10.0-0.59","c8ge","","","","","","null","null","audio_projekt/siegel1500siegel.wav"
"html-keyboard-response","133","369874","0.0-10.0-1.59","c8ge","","","","","","744","q","<div></div>"
"audio-keyboard-response","134","373425","0.0-10.0-0.60","c8ge","","","","","","null","null","audio_projekt/leder1500lieder.wav"
"html-keyboard-response","135","374230","0.0-10.0-1.60","c8ge","","","","","","804","p","<div></div>"
"audio-keyboard-response","136","377465","0.0-10.0-0.61","c8ge","","","","","","null","null","audio_projekt/tour1500tour.wav"
"html-keyboard-response","137","378719","0.0-10.0-1.61","c8ge","","","","","","1253","q","<div></div>"
"audio-keyboard-response","138","382225","0.0-10.0-0.62","c8ge","","","","","","null","null","audio_projekt/kiel1500kuehl.wav"
"html-keyboard-response","139","382929","0.0-10.0-1.62","c8ge","","","","","","703","p","<div></div>"
"audio-keyboard-response","140","386359","0.0-10.0-0.63","c8ge","","","","","","null","null","audio_projekt/blueten1500bluten.wav"
"html-keyboard-response","141","387219","0.0-10.0-1.63","c8ge","","","","","","859","p","<div></div>"
"audio-keyboard-response","142","390771","0.0-10.0-0.64","c8ge","","","","","","null","null","audio_projekt/lieder1500leder.wav"
"html-keyboard-response","143","391438","0.0-10.0-1.64","c8ge","","","","","","667","p","<div></div>"
"audio-keyboard-response","144","394672","0.0-10.0-0.65","c8ge","","","","","","null","null","audio_projekt/tuer1500tuer.wav"
"html-keyboard-response","145","395333","0.0-10.0-1.65","c8ge","","","","","","661","q","<div></div>"
"audio-keyboard-response","146","399130","0.0-10.0-0.66","c8ge","","","","","","null","null","audio_projekt/stuhl1500stuhl.wav"
"html-keyboard-response","147","399971","0.0-10.0-1.66","c8ge","","","","","","841","q","<div></div>"
"audio-keyboard-response","148","403472","0.0-10.0-0.67","c8ge","","","","","","null","null","audio_projekt/kuehl1500kuehl.wav"
"html-keyboard-response","149","404298","0.0-10.0-1.67","c8ge","","","","","","825","q","<div></div>"
"audio-keyboard-response","150","408186","0.0-10.0-0.68","c8ge","","","","","","null","null","audio_projekt/siegel1500segel.wav"
"html-keyboard-response","151","408954","0.0-10.0-1.68","c8ge","","","","","","768","p","<div></div>"
"audio-keyboard-response","152","413016","0.0-10.0-0.69","c8ge","","","","","","null","null","audio_projekt/spielen1500spulen.wav"
"html-keyboard-response","153","413811","0.0-10.0-1.69","c8ge","","","","","","794","p","<div></div>"
"audio-keyboard-response","154","417242","0.0-10.0-0.70","c8ge","","","","","","null","null","audio_projekt/bluten1500blueten.wav"
"html-keyboard-response","155","418123","0.0-10.0-1.70","c8ge","","","","","","880","p","<div></div>"
"audio-keyboard-response","156","422141","0.0-10.0-0.71","c8ge","","","","","","null","null","audio_projekt/spuelen1500spuelen.wav"
"html-keyboard-response","157","422932","0.0-10.0-1.71","c8ge","","","","","","790","q","<div></div>"
"audio-keyboard-response","158","426948","0.0-10.0-0.72","c8ge","","","","","","null","null","audio_projekt/spuelen1500spielen.wav"
"html-keyboard-response","159","427495","0.0-10.0-1.72","c8ge","","","","","","546","p","<div></div>"
"audio-keyboard-response","160","430873","0.0-10.0-0.73","c8ge","","","","","","null","null","audio_projekt/biene1500buehne.wav"
"html-keyboard-response","161","431394","0.0-10.0-1.73","c8ge","","","","","","521","p","<div></div>"
"audio-keyboard-response","162","434820","0.0-10.0-0.74","c8ge","","","","","","null","null","audio_projekt/blueten1500blueten.wav"
"html-keyboard-response","163","435319","0.0-10.0-1.74","c8ge","","","","","","498","q","<div></div>"
"audio-keyboard-response","164","439371","0.0-10.0-0.75","c8ge","","","","","","null","null","audio_projekt/spulen1500spulen.wav"
"html-keyboard-response","165","439870","0.0-10.0-1.75","c8ge","","","","","","498","q","<div></div>"
"audio-keyboard-response","166","443249","0.0-10.0-0.76","c8ge","","","","","","null","null","audio_projekt/biene1500biene.wav"
"html-keyboard-response","167","444082","0.0-10.0-1.76","c8ge","","","","","","832","q","<div></div>"
"audio-keyboard-response","168","447684","0.0-10.0-0.77","c8ge","","","","","","null","null","audio_projekt/bluten1500bluten.wav"
"html-keyboard-response","169","448460","0.0-10.0-1.77","c8ge","","","","","","775","q","<div></div>"
"audio-keyboard-response","170","452259","0.0-10.0-0.78","c8ge","","","","","","null","null","audio_projekt/stiel1500stiel.wav"
"html-keyboard-response","171","452920","0.0-10.0-1.78","c8ge","","","","","","661","q","<div></div>"
"audio-keyboard-response","172","456346","0.0-10.0-0.79","c8ge","","","","","","null","null","audio_projekt/bluten1500bluten.wav"
"html-keyboard-response","173","457137","0.0-10.0-1.79","c8ge","","","","","","790","q","<div></div>"
"html-keyboard-response","174","663285","0.0-11.0","c8ge","","","","","","205339"," ","<h2>Pause</h2><div class=""myDiv""><p>Gut gemacht! Jetzt k&ouml;nnen Sie eine kleine Pause machen.</p></div><div><img src=""pics/coffee.png"" title=""Machen Sie eine Pause..."" width=""150"" height=""150"" class=""center""></div><div style=""height:20px; width:100%""></div><p>Wenn Sie bereit sind, dr&uuml;cken Sie eine beliebige Taste, um fortzufahren.</p>"
"html-keyboard-response","175","670783","0.0-12.0","c8ge","","","","","","7497"," ","<h2>Teil 2: Identifikationsaufgabe: Vorbereitung 1</h2><div class=""myDiv""><p>In diesem Teil des Experimentes werden Sie nur ein Wort h&ouml;ren. </p><p>Anschlie&szlig;end werden zwei Bilder gezeigt. W&auml;hlen Sie das Bild aus, das das Wort darstellt.</p><p>Bevor die Aufgabe beginnt, werden die Bilder mit den entsprechenden W&ouml;rtern angezeigt. Sie werden jedes Bild zweimal sehen.</p><p>Dr&uuml;cken Sie bitte eine beliebige Taste, um die Bilder zu sehen.</p>"
"audio-button-response","176","673835","0.0-13.0-0.0-0.0","c8ge","","","","","","2845","0","audio_projekt/blueten.wav"
"audio-button-response","177","675526","0.0-13.0-0.0-0.1","c8ge","","","","","","1577","0","audio_projekt/beten1.wav"
"audio-button-response","178","676786","0.0-13.0-0.0-0.2","c8ge","","","","","","1174","0","audio_projekt/tuer.wav"
"audio-button-response","179","677865","0.0-13.0-0.0-0.3","c8ge","","","","","","966","0","audio_projekt/bluten.wav"
"audio-button-response","180","678786","0.0-13.0-0.0-0.4","c8ge","","","","","","808","0","audio_projekt/buehne.wav"
"audio-button-response","181","679730","0.0-13.0-0.0-0.5","c8ge","","","","","","830","0","audio_projekt/leder.wav"
"audio-button-response","182","681453","0.0-13.0-0.0-0.6","c8ge","","","","","","1606","0","audio_projekt/bieten1.wav"
"audio-button-response","183","682928","0.0-13.0-0.0-0.7","c8ge","","","","","","1354","0","audio_projekt/spulen.wav"
"audio-button-response","184","683855","0.0-13.0-0.0-0.8","c8ge","","","","","","812","0","audio_projekt/biene.wav"
"audio-button-response","185","684867","0.0-13.0-0.0-0.9","c8ge","","","","","","894","0","audio_projekt/segel.wav"
"audio-button-response","186","686043","0.0-13.0-0.0-0.10","c8ge","","","","","","1060","0","audio_projekt/stuhl.wav"
"audio-button-response","187","687022","0.0-13.0-0.0-0.11","c8ge","","","","","","894","0","audio_projekt/tier.wav"
"audio-button-response","188","688047","0.0-13.0-0.0-0.12","c8ge","","","","","","909","0","audio_projekt/treffen2.wav"
"audio-button-response","189","689304","0.0-13.0-0.0-0.13","c8ge","","","","","","1140","0","audio_projekt/stiel.wav"
"audio-button-response","190","690626","0.0-13.0-0.0-0.14","c8ge","","","","","","1202","0","audio_projekt/siegel.wav"
"audio-button-response","191","693894","0.0-13.0-0.0-0.15","c8ge","","","","","","3182","0","audio_projekt/tour.wav"
"audio-button-response","192","694983","0.0-13.0-0.0-0.16","c8ge","","","","","","971","0","audio_projekt/lieder.wav"
"audio-button-response","193","696328","0.0-13.0-0.0-0.17","c8ge","","","","","","1224","0","audio_projekt/spuelen2.wav"
"audio-button-response","194","698305","0.0-13.0-0.0-0.18","c8ge","","","","","","1863","0","audio_projekt/kiel.wav"
"audio-button-response","195","699228","0.0-13.0-0.0-0.19","c8ge","","","","","","808","0","audio_projekt/kuehl.wav"
"audio-button-response","196","700401","0.0-13.0-0.0-0.20","c8ge","","","","","","1052","0","audio_projekt/spielen2.wav"
"audio-button-response","197","702106","0.0-13.0-0.0-0.21","c8ge","","","","","","1585","0","audio_projekt/triefen1.wav"
"audio-button-response","198","709944","0.0-13.0-0.1-0.22","c8ge","","","","","","7836","0","audio_projekt/blueten.wav"
"audio-button-response","199","710786","0.0-13.0-0.1-0.23","c8ge","","","","","","842","0","audio_projekt/beten1.wav"
"audio-button-response","200","711658","0.0-13.0-0.1-0.24","c8ge","","","","","","870","0","audio_projekt/tuer.wav"
"audio-button-response","201","714392","0.0-13.0-0.1-0.25","c8ge","","","","","","2733","0","audio_projekt/bluten.wav"
"audio-button-response","202","716433","0.0-13.0-0.1-0.26","c8ge","","","","","","2040","0","audio_projekt/buehne.wav"
"audio-button-response","203","722278","0.0-13.0-0.1-0.27","c8ge","","","","","","5844","0","audio_projekt/leder.wav"
"audio-button-response","204","723107","0.0-13.0-0.1-0.28","c8ge","","","","","","827","0","audio_projekt/bieten1.wav"
"audio-button-response","205","724125","0.0-13.0-0.1-0.29","c8ge","","","","","","1018","0","audio_projekt/spulen.wav"
"audio-button-response","206","724876","0.0-13.0-0.1-0.30","c8ge","","","","","","749","0","audio_projekt/biene.wav"
"audio-button-response","207","725516","0.0-13.0-0.1-0.31","c8ge","","","","","","639","0","audio_projekt/segel.wav"
"audio-button-response","208","726675","0.0-13.0-0.1-0.32","c8ge","","","","","","1158","0","audio_projekt/stuhl.wav"
"audio-button-response","209","727499","0.0-13.0-0.1-0.33","c8ge","","","","","","823","0","audio_projekt/tier.wav"
"audio-button-response","210","728274","0.0-13.0-0.1-0.34","c8ge","","","","","","775","0","audio_projekt/treffen2.wav"
"audio-button-response","211","729234","0.0-13.0-0.1-0.35","c8ge","","","","","","959","0","audio_projekt/stiel.wav"
"audio-button-response","212","730177","0.0-13.0-0.1-0.36","c8ge","","","","","","941","0","audio_projekt/siegel.wav"
"audio-button-response","213","731403","0.0-13.0-0.1-0.37","c8ge","","","","","","1226","0","audio_projekt/tour.wav"
"audio-button-response","214","732262","0.0-13.0-0.1-0.38","c8ge","","","","","","858","0","audio_projekt/lieder.wav"
"audio-button-response","215","733186","0.0-13.0-0.1-0.39","c8ge","","","","","","923","0","audio_projekt/spuelen2.wav"
"audio-button-response","216","734014","0.0-13.0-0.1-0.40","c8ge","","","","","","826","0","audio_projekt/kiel.wav"
"audio-button-response","217","734923","0.0-13.0-0.1-0.41","c8ge","","","","","","908","0","audio_projekt/kuehl.wav"
"audio-button-response","218","735748","0.0-13.0-0.1-0.42","c8ge","","","","","","824","0","audio_projekt/spielen2.wav"
"audio-button-response","219","736706","0.0-13.0-0.1-0.43","c8ge","","","","","","956","0","audio_projekt/triefen1.wav"
"html-keyboard-response","220","744905","0.0-14.0","c8ge","","","","","","8198"," ","<h2>Teil 2: Identifikationsaufgabe: Vorbereitung 2</h2><div class=""myDiv""><p>Jetzt können Sie einen kurzen Probedurchlauf f&uuml;r diesen Teil des Experiments machen.</p><p>W&auml;hlen Sie das Bild aus, das das Wort darstellt. <ul><li>Dr&uuml;cken Sie die <b>Taste Q</b>, um das <b>linke</b> Bild auszuw&auml;hlen. Dr&uuml;cken Sie die <b>Taste P</b>, um das <b>rechte</b> Bild auszuw&auml;hlen.</li> <li>Sie haben 5 Sekunden Zeit, um sich f&uuml;r eines der Bilder zu entscheiden. </li><li>Bitte warten Sie, bis Sie <b>das ganze Wort gehört haben</b>, bevor Sie eine Taste drücken.</li></ul></p><p>Dr&uuml;cken Sie eine beliebige Taste, um den Probedurchlauf anzufangen.</p>"
"audio-keyboard-response","221","745639","0.0-15.0-0.0","c8ge","","","","","","null","null","audio_projekt/treffen2.wav"
"image-keyboard-response","222","746591","0.0-15.0-1.0","c8ge","","","","","","934","p","pics/scaled/triefen_treffen.png"
"audio-keyboard-response","223","748008","0.0-15.0-0.1","c8ge","","","","","","null","null","audio_projekt/beten1.wav"
"image-keyboard-response","224","749462","0.0-15.0-1.1","c8ge","","","","","","1453","p","pics/scaled/bieten_beten.jpg"
"html-keyboard-response","225","751778","0.0-16.0","c8ge","","","","","","1514"," ","<h2>Teil 2: Identifikationsaufgabe</h2><p>Jetzt sind Sie darauf vorbereitet, die Identifikationsaufgabe auszuführen.</p><p>Sind Sie bereit? Dann dr&uuml;cken Sie eine beliebige Taste, um anzufangen.</p>"
"audio-keyboard-response","226","752350","0.0-17.0-0.0","c8ge","","","","","","null","null","audio_projekt/biene.wav"
"image-keyboard-response","227","753169","0.0-17.0-1.0","c8ge","","","","","","818","q","pics/scaled/biene_buehne.png"
"audio-keyboard-response","228","754602","0.0-17.0-0.1","c8ge","","","","","","null","null","audio_projekt/kuehl.wav"
"image-keyboard-response","229","755372","0.0-17.0-1.1","c8ge","","","","","","768","p","pics/scaled/kiel_kuehl.jpg"
"audio-keyboard-response","230","757087","0.0-17.0-0.2","c8ge","","","","","","null","null","audio_projekt/spulen.wav"
"image-keyboard-response","231","757575","0.0-17.0-1.2","c8ge","","","","","","487","q","pics/scaled/spulen_spuelen.jpg"
"audio-keyboard-response","232","759293","0.0-17.0-0.3","c8ge","","","","","","null","null","audio_projekt/spuelen2.wav"
"image-keyboard-response","233","759601","0.0-17.0-1.3","c8ge","","","","","","307","p","pics/scaled/spielen_spuelen.jpg"
"audio-keyboard-response","234","761034","0.0-17.0-0.4","c8ge","","","","","","null","null","audio_projekt/kuehl.wav"
"image-keyboard-response","235","761656","0.0-17.0-1.4","c8ge","","","","","","621","p","pics/scaled/kiel_kuehl.jpg"
"audio-keyboard-response","236","762962","0.0-17.0-0.5","c8ge","","","","","","null","null","audio_projekt/tuer.wav"
"image-keyboard-response","237","763603","0.0-17.0-1.5","c8ge","","","","","","640","p","pics/scaled/tuer_tour.jpg"
"audio-keyboard-response","238","764982","0.0-17.0-0.6","c8ge","","","","","","null","null","audio_projekt/buehne.wav"
"image-keyboard-response","239","765475","0.0-17.0-1.6","c8ge","","","","","","492","p","pics/scaled/biene_buehne.png"
"audio-keyboard-response","240","766932","0.0-17.0-0.7","c8ge","","","","","","null","null","audio_projekt/lieder.wav"
"image-keyboard-response","241","767457","0.0-17.0-1.7","c8ge","","","","","","524","p","pics/scaled/lieder_leder.jpg"
"audio-keyboard-response","242","768767","0.0-17.0-0.8","c8ge","","","","","","null","null","audio_projekt/tour.wav"
"image-keyboard-response","243","769299","0.0-17.0-1.8","c8ge","","","","","","531","p","pics/scaled/tier_tour.jpg"
"audio-keyboard-response","244","770764","0.0-17.0-0.9","c8ge","","","","","","null","null","audio_projekt/leder.wav"
"image-keyboard-response","245","771003","0.0-17.0-1.9","c8ge","","","","","","238","q","pics/scaled/lieder_leder.jpg"
"audio-keyboard-response","246","772459","0.0-17.0-0.10","c8ge","","","","","","null","null","audio_projekt/lieder.wav"
"image-keyboard-response","247","773112","0.0-17.0-1.10","c8ge","","","","","","652","p","pics/scaled/lieder_leder.jpg"
"audio-keyboard-response","248","774549","0.0-17.0-0.11","c8ge","","","","","","null","null","audio_projekt/kiel.wav"
"image-keyboard-response","249","774892","0.0-17.0-1.11","c8ge","","","","","","342","q","pics/scaled/kiel_kuehl.jpg"
"audio-keyboard-response","250","776592","0.0-17.0-0.12","c8ge","","","","","","null","null","audio_projekt/spuelen2.wav"
"image-keyboard-response","251","777110","0.0-17.0-1.12","c8ge","","","","","","517","p","pics/scaled/spielen_spuelen.jpg"
"audio-keyboard-response","252","778519","0.0-17.0-0.13","c8ge","","","","","","null","null","audio_projekt/bluten.wav"
"image-keyboard-response","253","780780","0.0-17.0-1.13","c8ge","","","","","","2259","q","pics/scaled/bluten_blueten.jpg"
"audio-keyboard-response","254","782188","0.0-17.0-0.14","c8ge","","","","","","null","null","audio_projekt/blueten.wav"
"image-keyboard-response","255","783446","0.0-17.0-1.14","c8ge","","","","","","1257","p","pics/scaled/bluten_blueten.jpg"
"audio-keyboard-response","256","784743","0.0-17.0-0.15","c8ge","","","","","","null","null","audio_projekt/tour.wav"
"image-keyboard-response","257","787323","0.0-17.0-1.15","c8ge","","","","","","2579","p","pics/scaled/tier_tour.jpg"
"audio-keyboard-response","258","788969","0.0-17.0-0.16","c8ge","","","","","","null","null","audio_projekt/segel.wav"
"image-keyboard-response","259","790305","0.0-17.0-1.16","c8ge","","","","","","1335","p","pics/scaled/siegel_segel.jpg"
"audio-keyboard-response","260","792127","0.0-17.0-0.17","c8ge","","","","","","null","null","audio_projekt/spielen.wav"
"image-keyboard-response","261","794961","0.0-17.0-1.17","c8ge","","","","","","2833","q","pics/scaled/spielen_spuelen.jpg"
"audio-keyboard-response","262","796678","0.0-17.0-0.18","c8ge","","","","","","null","null","audio_projekt/spielen2.wav"
"image-keyboard-response","263","796928","0.0-17.0-1.18","c8ge","","","","","","249","p","pics/scaled/spielen_spulen.jpg"
"audio-keyboard-response","264","798629","0.0-17.0-0.19","c8ge","","","","","","null","null","audio_projekt/spielen2.wav"
"image-keyboard-response","265","798772","0.0-17.0-1.19","c8ge","","","","","","143","p","pics/scaled/spielen_spulen.jpg"
"audio-keyboard-response","266","800370","0.0-17.0-0.20","c8ge","","","","","","null","null","audio_projekt/stiel.wav"
"image-keyboard-response","267","800749","0.0-17.0-1.20","c8ge","","","","","","378","q","pics/scaled/stiel2_stuhl.jpg"
"audio-keyboard-response","268","802390","0.0-17.0-0.21","c8ge","","","","","","null","null","audio_projekt/siegel.wav"
"image-keyboard-response","269","803043","0.0-17.0-1.21","c8ge","","","","","","651","p","pics/scaled/siegel_segel.jpg"
"audio-keyboard-response","270","804666","0.0-17.0-0.22","c8ge","","","","","","null","null","audio_projekt/siegel.wav"
"image-keyboard-response","271","804751","0.0-17.0-1.22","c8ge","","","","","","84","p","pics/scaled/siegel_segel.jpg"
"audio-keyboard-response","272","806059","0.0-17.0-0.23","c8ge","","","","","","null","null","audio_projekt/tour.wav"
"image-keyboard-response","273","806426","0.0-17.0-1.23","c8ge","","","","","","367","p","pics/scaled/tuer_tour.jpg"
"audio-keyboard-response","274","808126","0.0-17.0-0.24","c8ge","","","","","","null","null","audio_projekt/spulen.wav"
"image-keyboard-response","275","808407","0.0-17.0-1.24","c8ge","","","","","","280","q","pics/scaled/spielen_spulen.jpg"
"audio-keyboard-response","276","809821","0.0-17.0-0.25","c8ge","","","","","","null","null","audio_projekt/bluten.wav"
"image-keyboard-response","277","812939","0.0-17.0-1.25","c8ge","","","","","","3117","q","pics/scaled/bluten_blueten.jpg"
"audio-keyboard-response","278","814372","0.0-17.0-0.26","c8ge","","","","","","null","null","audio_projekt/kuehl.wav"
"image-keyboard-response","279","814667","0.0-17.0-1.26","c8ge","","","","","","289","p","pics/scaled/kiel_kuehl.jpg"
"audio-keyboard-response","280","816090","0.0-17.0-0.27","c8ge","","","","","","null","null","audio_projekt/kiel.wav"
"image-keyboard-response","281","816467","0.0-17.0-1.27","c8ge","","","","","","375","q","pics/scaled/kiel_kuehl.jpg"
"audio-keyboard-response","282","817786","0.0-17.0-0.28","c8ge","","","","","","null","null","audio_projekt/tuer.wav"
"image-keyboard-response","283","818110","0.0-17.0-1.28","c8ge","","","","","","323","p","pics/scaled/tuer_tour.jpg"
"audio-keyboard-response","284","819829","0.0-17.0-0.29","c8ge","","","","","","null","null","audio_projekt/spuelen2.wav"
"image-keyboard-response","285","820789","0.0-17.0-1.29","c8ge","","","","","","959","p","pics/scaled/spulen_spuelen.jpg"
"audio-keyboard-response","286","822174","0.0-17.0-0.30","c8ge","","","","","","null","null","audio_projekt/biene.wav"
"image-keyboard-response","287","822785","0.0-17.0-1.30","c8ge","","","","","","609","q","pics/scaled/biene_buehne.png"
"audio-keyboard-response","288","824194","0.0-17.0-0.31","c8ge","","","","","","null","null","audio_projekt/blueten.wav"
"image-keyboard-response","289","825046","0.0-17.0-1.31","c8ge","","","","","","851","p","pics/scaled/bluten_blueten.jpg"
"audio-keyboard-response","290","826749","0.0-17.0-0.32","c8ge","","","","","","null","null","audio_projekt/spulen.wav"
"image-keyboard-response","291","826967","0.0-17.0-1.32","c8ge","","","","","","217","q","pics/scaled/spielen_spulen.jpg"
"audio-keyboard-response","292","828676","0.0-17.0-0.33","c8ge","","","","","","null","null","audio_projekt/spielen.wav"
"image-keyboard-response","293","828920","0.0-17.0-1.33","c8ge","","","","","","242","q","pics/scaled/spielen_spuelen.jpg"
"audio-keyboard-response","294","830627","0.0-17.0-0.34","c8ge","","","","","","null","null","audio_projekt/spulen.wav"
"image-keyboard-response","295","832178","0.0-17.0-1.34","c8ge","","","","","","1550","p","pics/scaled/spulen_spuelen.jpg"
"audio-keyboard-response","296","833877","0.0-17.0-0.35","c8ge","","","","","","null","null","audio_projekt/spulen.wav"
"image-keyboard-response","297","834174","0.0-17.0-1.35","c8ge","","","","","","295","q","pics/scaled/spielen_spulen.jpg"
"audio-keyboard-response","298","835874","0.0-17.0-0.36","c8ge","","","","","","null","null","audio_projekt/spuelen2.wav"
"image-keyboard-response","299","836919","0.0-17.0-1.36","c8ge","","","","","","1043","p","pics/scaled/spielen_spuelen.jpg"
"audio-keyboard-response","300","838522","0.0-17.0-0.37","c8ge","","","","","","null","null","audio_projekt/stuhl.wav"
"image-keyboard-response","301","838858","0.0-17.0-1.37","c8ge","","","","","","335","p","pics/scaled/stiel2_stuhl.jpg"
"audio-keyboard-response","302","840263","0.0-17.0-0.38","c8ge","","","","","","null","null","audio_projekt/bluten.wav"
"image-keyboard-response","303","842627","0.0-17.0-1.38","c8ge","","","","","","2363","q","pics/scaled/bluten_blueten.jpg"
"audio-keyboard-response","304","844211","0.0-17.0-0.39","c8ge","","","","","","null","null","audio_projekt/stuhl.wav"
"image-keyboard-response","305","844645","0.0-17.0-1.39","c8ge","","","","","","433","p","pics/scaled/stiel2_stuhl.jpg"
"audio-keyboard-response","306","846092","0.0-17.0-0.40","c8ge","","","","","","null","null","audio_projekt/leder.wav"
"image-keyboard-response","307","846268","0.0-17.0-1.40","c8ge","","","","","","176","q","pics/scaled/lieder_leder.jpg"
"audio-keyboard-response","308","847647","0.0-17.0-0.41","c8ge","","","","","","null","null","audio_projekt/biene.wav"
"image-keyboard-response","309","847764","0.0-17.0-1.41","c8ge","","","","","","115","q","pics/scaled/biene_buehne.png"
"audio-keyboard-response","310","849342","0.0-17.0-0.42","c8ge","","","","","","null","null","audio_projekt/stuhl.wav"
"image-keyboard-response","311","850293","0.0-17.0-1.42","c8ge","","","","","","949","p","pics/scaled/stiel2_stuhl.jpg"
"audio-keyboard-response","312","851595","0.0-17.0-0.43","c8ge","","","","","","null","null","audio_projekt/tier.wav"
"image-keyboard-response","313","851760","0.0-17.0-1.43","c8ge","","","","","","164","q","pics/scaled/tier_tour.jpg"
"audio-keyboard-response","314","853197","0.0-17.0-0.44","c8ge","","","","","","null","null","audio_projekt/kiel.wav"
"image-keyboard-response","315","853425","0.0-17.0-1.44","c8ge","","","","","","227","q","pics/scaled/kiel_kuehl.jpg"
"audio-keyboard-response","316","855008","0.0-17.0-0.45","c8ge","","","","","","null","null","audio_projekt/stiel.wav"
"image-keyboard-response","317","855247","0.0-17.0-1.45","c8ge","","","","","","238","q","pics/scaled/stiel2_stuhl.jpg"
"audio-keyboard-response","318","856889","0.0-17.0-0.46","c8ge","","","","","","null","null","audio_projekt/segel.wav"
"image-keyboard-response","319","857697","0.0-17.0-1.46","c8ge","","","","","","807","q","pics/scaled/siegel_segel.jpg"
"audio-keyboard-response","320","859397","0.0-17.0-0.47","c8ge","","","","","","null","null","audio_projekt/spielen2.wav"
"image-keyboard-response","321","861355","0.0-17.0-1.47","c8ge","","","","","","1957","p","pics/scaled/spielen_spulen.jpg"
"audio-keyboard-response","322","862996","0.0-17.0-0.48","c8ge","","","","","","null","null","audio_projekt/segel.wav"
"image-keyboard-response","323","864495","0.0-17.0-1.48","c8ge","","","","","","1498","q","pics/scaled/siegel_segel.jpg"
"audio-keyboard-response","324","866201","0.0-17.0-0.49","c8ge","","","","","","null","null","audio_projekt/spielen.wav"
"image-keyboard-response","325","866659","0.0-17.0-1.49","c8ge","","","","","","458","q","pics/scaled/spielen_spuelen.jpg"
"audio-keyboard-response","326","868360","0.0-17.0-0.50","c8ge","","","","","","null","null","audio_projekt/spulen.wav"
"image-keyboard-response","327","868662","0.0-17.0-1.50","c8ge","","","","","","300","p","pics/scaled/spulen_spuelen.jpg"
"audio-keyboard-response","328","870032","0.0-17.0-0.51","c8ge","","","","","","null","null","audio_projekt/buehne.wav"
"image-keyboard-response","329","870388","0.0-17.0-1.51","c8ge","","","","","","355","p","pics/scaled/biene_buehne.png"
"audio-keyboard-response","330","871704","0.0-17.0-0.52","c8ge","","","","","","null","null","audio_projekt/tour.wav"
"image-keyboard-response","331","872503","0.0-17.0-1.52","c8ge","","","","","","798","q","pics/scaled/tuer_tour.jpg"
"audio-keyboard-response","332","873817","0.0-17.0-0.53","c8ge","","","","","","null","null","audio_projekt/tuer.wav"
"image-keyboard-response","333","874079","0.0-17.0-1.53","c8ge","","","","","","261","p","pics/scaled/tuer_tour.jpg"
"audio-keyboard-response","334","875791","0.0-17.0-0.54","c8ge","","","","","","null","null","audio_projekt/spuelen2.wav"
"image-keyboard-response","335","876015","0.0-17.0-1.54","c8ge","","","","","","223","p","pics/scaled/spulen_spuelen.jpg"
"audio-keyboard-response","336","877393","0.0-17.0-0.55","c8ge","","","","","","null","null","audio_projekt/buehne.wav"
"image-keyboard-response","337","877678","0.0-17.0-1.55","c8ge","","","","","","283","p","pics/scaled/biene_buehne.png"
"audio-keyboard-response","338","878995","0.0-17.0-0.56","c8ge","","","","","","null","null","audio_projekt/tour.wav"
"image-keyboard-response","339","879774","0.0-17.0-1.56","c8ge","","","","","","777","q","pics/scaled/tuer_tour.jpg"
"audio-keyboard-response","340","881364","0.0-17.0-0.57","c8ge","","","","","","null","null","audio_projekt/stiel.wav"
"image-keyboard-response","341","881477","0.0-17.0-1.57","c8ge","","","","","","112","q","pics/scaled/stiel2_stuhl.jpg"
"audio-keyboard-response","342","883128","0.0-17.0-0.58","c8ge","","","","","","null","null","audio_projekt/siegel.wav"
"image-keyboard-response","343","884071","0.0-17.0-1.58","c8ge","","","","","","942","p","pics/scaled/siegel_segel.jpg"
"audio-keyboard-response","344","885520","0.0-17.0-0.59","c8ge","","","","","","null","null","audio_projekt/leder.wav"
"image-keyboard-response","345","885900","0.0-17.0-1.59","c8ge","","","","","","379","q","pics/scaled/lieder_leder.jpg"
"audio-keyboard-response","346","887215","0.0-17.0-0.60","c8ge","","","","","","null","null","audio_projekt/tier.wav"
"image-keyboard-response","347","887376","0.0-17.0-1.60","c8ge","","","","","","160","q","pics/scaled/tier_tour.jpg"
"audio-keyboard-response","348","888794","0.0-17.0-0.61","c8ge","","","","","","null","null","audio_projekt/blueten.wav"
"image-keyboard-response","349","889250","0.0-17.0-1.61","c8ge","","","","","","454","p","pics/scaled/bluten_blueten.jpg"
"audio-keyboard-response","350","890697","0.0-17.0-0.62","c8ge","","","","","","null","null","audio_projekt/lieder.wav"
"image-keyboard-response","351","891086","0.0-17.0-1.62","c8ge","","","","","","388","p","pics/scaled/lieder_leder.jpg"
"audio-keyboard-response","352","892392","0.0-17.0-0.63","c8ge","","","","","","null","null","audio_projekt/tier.wav"
"image-keyboard-response","353","892902","0.0-17.0-1.63","c8ge","","","","","","509","q","pics/scaled/tier_tour.jpg"
"audio-keyboard-response","354","894621","0.0-17.0-0.64","c8ge","","","","","","null","null","audio_projekt/spuelen2.wav"
"image-keyboard-response","355","895583","0.0-17.0-1.64","c8ge","","","","","","961","p","pics/scaled/spulen_spuelen.jpg"
"audio-keyboard-response","356","896897","0.0-17.0-0.65","c8ge","","","","","","null","null","audio_projekt/tour.wav"
"image-keyboard-response","357","897529","0.0-17.0-1.65","c8ge","","","","","","631","p","pics/scaled/tier_tour.jpg"
