"subject","trial_type","trial_index","time_elapsed","internal_node_id","success","timeout","failed_images","failed_audio","failed_video","rt","response","stimulus","native","AOL","LearnType1","LearnType2","LearnType3","LearnType4","LearnType5","LearnType6","which","AOA","timespent","word1","word2","sameordiffstims","vowel_word1","vowel_word2","vowelcontrast","tributesto","tributesto2","trialType","cont"
"0p5y","html-keyboard-response",15,222350,"0.0-10.0-1.0",NA,NA,NA,NA,NA,1202,"p","lieder1500leder","Englisch","12","classeshome","selflearn",NA,"uni","classesabroad","immersion","4","18","1 Jahr","lieder","leder",1,"i_long","e_long","e_long/i_long","i/e","0","different","e/i"
"0p5y","html-keyboard-response",17,226969,"0.0-10.0-1.1",NA,NA,NA,NA,NA,681,"q","stuhl1500stuhl","Englisch","12","classeshome","selflearn",NA,"uni","classesabroad","immersion","4","18","1 Jahr","stuhl","stuhl",0,"u","u","u/u","u/i","0","same","u/u"
"0p5y","html-keyboard-response",19,231307,"0.0-10.0-1.2",NA,NA,NA,NA,NA,420,"p","stuhl1500stiel","Englisch","12","classeshome","selflearn",NA,"uni","classesabroad","immersion","4","18","1 Jahr","stuhl","stiel",1,"u","i_long","u/i_long","u/i","0","different","u/i"
"0p5y","html-keyboard-response",21,235805,"0.0-10.0-1.3",NA,NA,NA,NA,NA,357,"p","spielen1500spuelen","Englisch","12","classeshome","selflearn",NA,"uni","classesabroad","immersion","4","18","1 Jahr","spielen","spuelen",1,"i_long","y","y/i_long","y/i","0","different","i/y"
"0p5y","html-keyboard-response",23,239747,"0.0-10.0-1.4",NA,NA,NA,NA,NA,279,"p","leder1500lieder","Englisch","12","classeshome","selflearn",NA,"uni","classesabroad","immersion","4","18","1 Jahr","leder","lieder",1,"e_long","i_long","e_long/i_long","i/e","0","different","e/i"
"0p5y","html-keyboard-response",25,244227,"0.0-10.0-1.5",NA,NA,NA,NA,NA,540,"p","stiel1500stuhl","Englisch","12","classeshome","selflearn",NA,"uni","classesabroad","immersion","4","18","1 Jahr","stiel","stuhl",1,"i_long","u","u/i_long","u/i","0","different","u/i"
"0p5y","html-keyboard-response",27,248257,"0.0-10.0-1.6",NA,NA,NA,NA,NA,689,"q","tuer1500tuer","Englisch","12","classeshome","selflearn",NA,"uni","classesabroad","immersion","4","18","1 Jahr","tuer","tuer",0,"y","y","y/y","y/i","u/i","same","y/y"
"0p5y","html-keyboard-response",29,252671,"0.0-10.0-1.7",NA,NA,NA,NA,NA,364,"p","siegel1500segel","Englisch","12","classeshome","selflearn",NA,"uni","classesabroad","immersion","4","18","1 Jahr","siegel","segel",1,"i_long","e_long","e_long/i_long","i/e","0","different","e/i"
"0p5y","html-keyboard-response",31,256928,"0.0-10.0-1.8",NA,NA,NA,NA,NA,720,"q","bluten1500blueten","Englisch","12","classeshome","selflearn",NA,"uni","classesabroad","immersion","4","18","1 Jahr","bluten","blueten",1,"u","y","u/y","u/y","0","different","u/y"
"0p5y","html-keyboard-response",33,261228,"0.0-10.0-1.9",NA,NA,NA,NA,NA,281,"p","segel1500siegel","Englisch","12","classeshome","selflearn",NA,"uni","classesabroad","immersion","4","18","1 Jahr","segel","siegel",1,"e_long","i_long","e_long/i_long","i/e","0","different","e/i"
"0p5y","html-keyboard-response",35,265422,"0.0-10.0-1.10",NA,NA,NA,NA,NA,835,"q","tier1500tier","Englisch","12","classeshome","selflearn",NA,"uni","classesabroad","immersion","4","18","1 Jahr","tier","tier",0,"i_long","i_long","i_long/i_long","y/i","u/i","same","i/i"
"0p5y","html-keyboard-response",37,269617,"0.0-10.0-1.11",NA,NA,NA,NA,NA,311,"p","siegel1500segel","Englisch","12","classeshome","selflearn",NA,"uni","classesabroad","immersion","4","18","1 Jahr","siegel","segel",1,"i_long","e_long","e_long/i_long","i/e","0","different","e/i"
"0p5y","html-keyboard-response",39,273676,"0.0-10.0-1.12",NA,NA,NA,NA,NA,409,"q","lieder1500lieder","Englisch","12","classeshome","selflearn",NA,"uni","classesabroad","immersion","4","18","1 Jahr","lieder","lieder",0,"i_long","i_long","i_long/i_long","i/e","0","same","i/i"
"0p5y","html-keyboard-response",41,277806,"0.0-10.0-1.13",NA,NA,NA,NA,NA,579,"q","blueten1500blueten","Englisch","12","classeshome","selflearn",NA,"uni","classesabroad","immersion","4","18","1 Jahr","blueten","blueten",0,"y","y","y/y","u/y","0","same","y/y"
"0p5y","html-keyboard-response",43,282476,"0.0-10.0-1.14",NA,NA,NA,NA,NA,489,"p","spulen1500spielen","Englisch","12","classeshome","selflearn",NA,"uni","classesabroad","immersion","4","18","1 Jahr","spulen","spielen",1,"u","i_long","u/i_long","u/i","0","different","u/i"
"0p5y","html-keyboard-response",45,286549,"0.0-10.0-1.15",NA,NA,NA,NA,NA,162,"q","stiel1500stiel","Englisch","12","classeshome","selflearn",NA,"uni","classesabroad","immersion","4","18","1 Jahr","stiel","stiel",0,"i_long","i_long","i_long/i_long","u/i","0","same","i/i"
"0p5y","html-keyboard-response",47,291259,"0.0-10.0-1.16",NA,NA,NA,NA,NA,551,"q","spulen1500spulen","Englisch","12","classeshome","selflearn",NA,"uni","classesabroad","immersion","4","18","1 Jahr","spulen","spulen",0,"u","u","u/u","u/i","u/y","same","u/u"
"0p5y","html-keyboard-response",49,294868,"0.0-10.0-1.17",NA,NA,NA,NA,NA,380,"q","tier1500tier","Englisch","12","classeshome","selflearn",NA,"uni","classesabroad","immersion","4","18","1 Jahr","tier","tier",0,"i_long","i_long","i_long/i_long","y/i","u/i","same","i/i"
"0p5y","html-keyboard-response",51,298873,"0.0-10.0-1.18",NA,NA,NA,NA,NA,366,"p","kuehl1500kiel","Englisch","12","classeshome","selflearn",NA,"uni","classesabroad","immersion","4","18","1 Jahr","kuehl","kiel",1,"y","i_long","y/i_long","y/i","0","different","i/y"
"0p5y","html-keyboard-response",53,304390,"0.0-10.0-1.19",NA,NA,NA,NA,NA,1353,"p","spuelen1500spielen","Englisch","12","classeshome","selflearn",NA,"uni","classesabroad","immersion","4","18","1 Jahr","spuelen","spielen",1,"y","i_long","y/i_long","y/i","0","different","i/y"
"0p5y","html-keyboard-response",55,308731,"0.0-10.0-1.20",NA,NA,NA,NA,NA,774,"q","blueten1500bluten","Englisch","12","classeshome","selflearn",NA,"uni","classesabroad","immersion","4","18","1 Jahr","blueten","bluten",1,"y","u","u/y","u/y","0","different","u/y"
"0p5y","html-keyboard-response",57,312862,"0.0-10.0-1.21",NA,NA,NA,NA,NA,245,"p","segel1500siegel","Englisch","12","classeshome","selflearn",NA,"uni","classesabroad","immersion","4","18","1 Jahr","segel","siegel",1,"e_long","i_long","e_long/i_long","i/e","0","different","e/i"
"0p5y","html-keyboard-response",59,317212,"0.0-10.0-1.22",NA,NA,NA,NA,NA,295,"q","spulen1500spulen","Englisch","12","classeshome","selflearn",NA,"uni","classesabroad","immersion","4","18","1 Jahr","spulen","spulen",0,"u","u","u/u","u/i","u/y","same","u/u"
"0p5y","html-keyboard-response",61,321203,"0.0-10.0-1.23",NA,NA,NA,NA,NA,365,"p","kiel1500kuehl","Englisch","12","classeshome","selflearn",NA,"uni","classesabroad","immersion","4","18","1 Jahr","kiel","kuehl",1,"i_long","y","y/i_long","y/i","0","different","i/y"
"0p5y","html-keyboard-response",63,325578,"0.0-10.0-1.24",NA,NA,NA,NA,NA,1000,"p","tier1500tour","Englisch","12","classeshome","selflearn",NA,"uni","classesabroad","immersion","4","18","1 Jahr","tier","tour",1,"i_long","u","u/i_long","u/i","0","different","u/i"
"0p5y","html-keyboard-response",65,330082,"0.0-10.0-1.25",NA,NA,NA,NA,NA,345,"q","spielen1500spielen","Englisch","12","classeshome","selflearn",NA,"uni","classesabroad","immersion","4","18","1 Jahr","spielen","spielen",0,"i_long","i_long","i_long/i_long","u/i","y/i","same","i/i"
"0p5y","html-keyboard-response",67,334075,"0.0-10.0-1.26",NA,NA,NA,NA,NA,377,"q","kiel1500kiel","Englisch","12","classeshome","selflearn",NA,"uni","classesabroad","immersion","4","18","1 Jahr","kiel","kiel",0,"i_long","i_long","i_long/i_long","y/i","0","same","i/i"
"0p5y","html-keyboard-response",69,338351,"0.0-10.0-1.27",NA,NA,NA,NA,NA,653,"q","kuehl1500kuehl","Englisch","12","classeshome","selflearn",NA,"uni","classesabroad","immersion","4","18","1 Jahr","kuehl","kuehl",0,"y","y","y/y","y/i","0","same","y/y"
"0p5y","html-keyboard-response",71,342444,"0.0-10.0-1.28",NA,NA,NA,NA,NA,287,"p","stiel1500stuhl","Englisch","12","classeshome","selflearn",NA,"uni","classesabroad","immersion","4","18","1 Jahr","stiel","stuhl",1,"i_long","u","u/i_long","u/i","0","different","u/i"
"0p5y","html-keyboard-response",73,346475,"0.0-10.0-1.29",NA,NA,NA,NA,NA,598,"q","blueten1500blueten","Englisch","12","classeshome","selflearn",NA,"uni","classesabroad","immersion","4","18","1 Jahr","blueten","blueten",0,"y","y","y/y","u/y","0","same","y/y"
"0p5y","html-keyboard-response",75,350117,"0.0-10.0-1.30",NA,NA,NA,NA,NA,219,"q","bluten1500blueten","Englisch","12","classeshome","selflearn",NA,"uni","classesabroad","immersion","4","18","1 Jahr","bluten","blueten",1,"u","y","u/y","u/y","0","different","u/y"
"0p5y","html-keyboard-response",77,353873,"0.0-10.0-1.31",NA,NA,NA,NA,NA,396,"p","tour1500tuer","Englisch","12","classeshome","selflearn",NA,"uni","classesabroad","immersion","4","18","1 Jahr","tour","tuer",1,"u","y","u/y","u/y","0","different","u/y"
"0p5y","html-keyboard-response",79,358311,"0.0-10.0-1.32",NA,NA,NA,NA,NA,634,"q","stuhl1500stuhl","Englisch","12","classeshome","selflearn",NA,"uni","classesabroad","immersion","4","18","1 Jahr","stuhl","stuhl",0,"u","u","u/u","u/i","0","same","u/u"
"0p5y","html-keyboard-response",81,362561,"0.0-10.0-1.33",NA,NA,NA,NA,NA,204,"q","siegel1500siegel","Englisch","12","classeshome","selflearn",NA,"uni","classesabroad","immersion","4","18","1 Jahr","siegel","siegel",0,"i_long","i_long","i_long/i_long","i/e","0","same","i/i"
"0p5y","html-keyboard-response",83,367601,"0.0-10.0-1.34",NA,NA,NA,NA,NA,1044,"p","spulen1500spuelen","Englisch","12","classeshome","selflearn",NA,"uni","classesabroad","immersion","4","18","1 Jahr","spulen","spuelen",1,"u","y","u/y","u/y","0","different","u/y"
"0p5y","html-keyboard-response",85,371431,"0.0-10.0-1.35",NA,NA,NA,NA,NA,314,"q","biene1500biene","Englisch","12","classeshome","selflearn",NA,"uni","classesabroad","immersion","4","18","1 Jahr","biene","biene",0,"i_long","i_long","i_long/i_long","y/i","0","same","i/i"
"0p5y","html-keyboard-response",87,375425,"0.0-10.0-1.36",NA,NA,NA,NA,NA,588,"p","tuer1500tour","Englisch","12","classeshome","selflearn",NA,"uni","classesabroad","immersion","4","18","1 Jahr","tuer","tour",1,"y","u","u/y","u/y","0","different","u/y"
"0p5y","html-keyboard-response",89,379219,"0.0-10.0-1.37",NA,NA,NA,NA,NA,282,"q","buehne1500buehne","Englisch","12","classeshome","selflearn",NA,"uni","classesabroad","immersion","4","18","1 Jahr","buehne","buehne",0,"y","y","y/y","y/i","0","same","y/y"
"0p5y","html-keyboard-response",91,383727,"0.0-10.0-1.38",NA,NA,NA,NA,NA,490,"q","spielen1500spielen","Englisch","12","classeshome","selflearn",NA,"uni","classesabroad","immersion","4","18","1 Jahr","spielen","spielen",0,"i_long","i_long","i_long/i_long","u/i","y/i","same","i/i"
"0p5y","html-keyboard-response",93,387753,"0.0-10.0-1.39",NA,NA,NA,NA,NA,156,"q","siegel1500siegel","Englisch","12","classeshome","selflearn",NA,"uni","classesabroad","immersion","4","18","1 Jahr","siegel","siegel",0,"i_long","i_long","i_long/i_long","i/e","0","same","i/i"
"0p5y","html-keyboard-response",95,392055,"0.0-10.0-1.40",NA,NA,NA,NA,NA,98,"p","spielen1500spulen","Englisch","12","classeshome","selflearn",NA,"uni","classesabroad","immersion","4","18","1 Jahr","spielen","spulen",1,"i_long","u","u/i_long","u/i","0","different","u/i"
"0p5y","html-keyboard-response",97,395867,"0.0-10.0-1.41",NA,NA,NA,NA,NA,450,"q","biene1500biene","Englisch","12","classeshome","selflearn",NA,"uni","classesabroad","immersion","4","18","1 Jahr","biene","biene",0,"i_long","i_long","i_long/i_long","y/i","0","same","i/i"
"0p5y","html-keyboard-response",99,400142,"0.0-10.0-1.42",NA,NA,NA,NA,NA,805,"p","kiel1500kuehl","Englisch","12","classeshome","selflearn",NA,"uni","classesabroad","immersion","4","18","1 Jahr","kiel","kuehl",1,"i_long","y","y/i_long","y/i","0","different","i/y"
"0p5y","html-keyboard-response",101,404492,"0.0-10.0-1.43",NA,NA,NA,NA,NA,314,"p","spielen1500spulen","Englisch","12","classeshome","selflearn",NA,"uni","classesabroad","immersion","4","18","1 Jahr","spielen","spulen",1,"i_long","u","u/i_long","u/i","0","different","u/i"
"0p5y","html-keyboard-response",103,408937,"0.0-10.0-1.44",NA,NA,NA,NA,NA,410,"p","spulen1500spielen","Englisch","12","classeshome","selflearn",NA,"uni","classesabroad","immersion","4","18","1 Jahr","spulen","spielen",1,"u","i_long","u/i_long","u/i","0","different","u/i"
"0p5y","html-keyboard-response",105,412903,"0.0-10.0-1.45",NA,NA,NA,NA,NA,456,"q","kuehl1500kuehl","Englisch","12","classeshome","selflearn",NA,"uni","classesabroad","immersion","4","18","1 Jahr","kuehl","kuehl",0,"y","y","y/y","y/i","0","same","y/y"
"0p5y","html-keyboard-response",107,417103,"0.0-10.0-1.46",NA,NA,NA,NA,NA,176,"p","spielen1500spuelen","Englisch","12","classeshome","selflearn",NA,"uni","classesabroad","immersion","4","18","1 Jahr","spielen","spuelen",1,"i_long","y","y/i_long","y/i","0","different","i/y"
"0p5y","html-keyboard-response",109,421062,"0.0-10.0-1.47",NA,NA,NA,NA,NA,595,"q","tour1500tour","Englisch","12","classeshome","selflearn",NA,"uni","classesabroad","immersion","4","18","1 Jahr","tour","tour",0,"u","u","u/u","u/i","u/y","same","u/u"
"0p5y","html-keyboard-response",111,427816,"0.0-10.0-1.48",NA,NA,NA,NA,NA,2709,"q","segel1500segel","Englisch","12","classeshome","selflearn",NA,"uni","classesabroad","immersion","4","18","1 Jahr","segel","segel",0,"e_long","e_long","e_long/e_long","i/e","0","same","e/e"
"0p5y","html-keyboard-response",113,432202,"0.0-10.0-1.49",NA,NA,NA,NA,NA,994,"q","buehne1500buehne","Englisch","12","classeshome","selflearn",NA,"uni","classesabroad","immersion","4","18","1 Jahr","buehne","buehne",0,"y","y","y/y","y/i","0","same","y/y"
"0p5y","html-keyboard-response",115,436697,"0.0-10.0-1.50",NA,NA,NA,NA,NA,950,"q","lieder1500lieder","Englisch","12","classeshome","selflearn",NA,"uni","classesabroad","immersion","4","18","1 Jahr","lieder","lieder",0,"i_long","i_long","i_long/i_long","i/e","0","same","i/i"
"0p5y","html-keyboard-response",117,441090,"0.0-10.0-1.51",NA,NA,NA,NA,NA,823,"q","bluten1500bluten","Englisch","12","classeshome","selflearn",NA,"uni","classesabroad","immersion","4","18","1 Jahr","bluten","bluten",0,"u","u","u/u","u/y","0","same","u/u"
"0p5y","html-keyboard-response",119,445548,"0.0-10.0-1.52",NA,NA,NA,NA,NA,1241,"q","tour1500tour","Englisch","12","classeshome","selflearn",NA,"uni","classesabroad","immersion","4","18","1 Jahr","tour","tour",0,"u","u","u/u","u/i","u/y","same","u/u"
"0p5y","html-keyboard-response",121,449819,"0.0-10.0-1.53",NA,NA,NA,NA,NA,262,"q","spuelen1500spulen","Englisch","12","classeshome","selflearn",NA,"uni","classesabroad","immersion","4","18","1 Jahr","spuelen","spulen",1,"y","u","u/y","u/y","0","different","u/y"
"0p5y","html-keyboard-response",123,453715,"0.0-10.0-1.54",NA,NA,NA,NA,NA,418,"p","kuehl1500kiel","Englisch","12","classeshome","selflearn",NA,"uni","classesabroad","immersion","4","18","1 Jahr","kuehl","kiel",1,"y","i_long","y/i_long","y/i","0","different","i/y"
"0p5y","html-keyboard-response",125,459087,"0.0-10.0-1.55",NA,NA,NA,NA,NA,1530,"p","spulen1500spuelen","Englisch","12","classeshome","selflearn",NA,"uni","classesabroad","immersion","4","18","1 Jahr","spulen","spuelen",1,"u","y","u/y","u/y","0","different","u/y"
"0p5y","html-keyboard-response",127,463144,"0.0-10.0-1.56",NA,NA,NA,NA,NA,397,"q","leder1500leder","Englisch","12","classeshome","selflearn",NA,"uni","classesabroad","immersion","4","18","1 Jahr","leder","leder",0,"e_long","e_long","e_long/e_long","i/e","0","same","e/e"
"0p5y","html-keyboard-response",129,466975,"0.0-10.0-1.57",NA,NA,NA,NA,NA,608,"p","tuer1500tour","Englisch","12","classeshome","selflearn",NA,"uni","classesabroad","immersion","4","18","1 Jahr","tuer","tour",1,"y","u","u/y","u/y","0","different","u/y"
"0p5y","html-keyboard-response",131,471482,"0.0-10.0-1.58",NA,NA,NA,NA,NA,674,"q","spuelen1500spulen","Englisch","12","classeshome","selflearn",NA,"uni","classesabroad","immersion","4","18","1 Jahr","spuelen","spulen",1,"y","u","u/y","u/y","0","different","u/y"
"0p5y","html-keyboard-response",133,475603,"0.0-10.0-1.59",NA,NA,NA,NA,NA,636,"q","kiel1500kiel","Englisch","12","classeshome","selflearn",NA,"uni","classesabroad","immersion","4","18","1 Jahr","kiel","kiel",0,"i_long","i_long","i_long/i_long","y/i","0","same","i/i"
"0p5y","html-keyboard-response",135,480057,"0.0-10.0-1.60",NA,NA,NA,NA,NA,450,"p","spuelen1500spielen","Englisch","12","classeshome","selflearn",NA,"uni","classesabroad","immersion","4","18","1 Jahr","spuelen","spielen",1,"y","i_long","y/i_long","y/i","0","different","i/y"
"0p5y","html-keyboard-response",137,483995,"0.0-10.0-1.61",NA,NA,NA,NA,NA,528,"q","bluten1500bluten","Englisch","12","classeshome","selflearn",NA,"uni","classesabroad","immersion","4","18","1 Jahr","bluten","bluten",0,"u","u","u/u","u/y","0","same","u/u"
"0p5y","html-keyboard-response",139,489120,"0.0-10.0-1.62",NA,NA,NA,NA,NA,1613,"p","buehne1500biene","Englisch","12","classeshome","selflearn",NA,"uni","classesabroad","immersion","4","18","1 Jahr","buehne","biene",1,"y","i_long","y/i_long","y/i","0","different","i/y"
"0p5y","html-keyboard-response",141,494325,"0.0-10.0-1.63",NA,NA,NA,NA,NA,1678,"p","lieder1500leder","Englisch","12","classeshome","selflearn",NA,"uni","classesabroad","immersion","4","18","1 Jahr","lieder","leder",1,"i_long","e_long","e_long/i_long","i/e","0","different","e/i"
"0p5y","html-keyboard-response",143,499012,"0.0-10.0-1.64",NA,NA,NA,NA,NA,1345,"p","tour1500tier","Englisch","12","classeshome","selflearn",NA,"uni","classesabroad","immersion","4","18","1 Jahr","tour","tier",1,"u","i_long","u/i_long","u/i","0","different","u/i"
"0p5y","html-keyboard-response",145,503775,"0.0-10.0-1.65",NA,NA,NA,NA,NA,887,"q","segel1500segel","Englisch","12","classeshome","selflearn",NA,"uni","classesabroad","immersion","4","18","1 Jahr","segel","segel",0,"e_long","e_long","e_long/e_long","i/e","0","same","e/e"
"0p5y","html-keyboard-response",147,508168,"0.0-10.0-1.66",NA,NA,NA,NA,NA,241,"q","spuelen1500spuelen","Englisch","12","classeshome","selflearn",NA,"uni","classesabroad","immersion","4","18","1 Jahr","spuelen","spuelen",0,"y","y","y/y","y/i","u/y","same","y/y"
"0p5y","html-keyboard-response",149,513351,"0.0-10.0-1.67",NA,NA,NA,NA,NA,1944,"p","tour1500tuer","Englisch","12","classeshome","selflearn",NA,"uni","classesabroad","immersion","4","18","1 Jahr","tour","tuer",1,"u","y","u/y","u/y","0","different","u/y"
"0p5y","html-keyboard-response",151,517354,"0.0-10.0-1.68",NA,NA,NA,NA,NA,787,"p","tier1500tour","Englisch","12","classeshome","selflearn",NA,"uni","classesabroad","immersion","4","18","1 Jahr","tier","tour",1,"i_long","u","u/i_long","u/i","0","different","u/i"
"0p5y","html-keyboard-response",153,521666,"0.0-10.0-1.69",NA,NA,NA,NA,NA,779,"q","leder1500leder","Englisch","12","classeshome","selflearn",NA,"uni","classesabroad","immersion","4","18","1 Jahr","leder","leder",0,"e_long","e_long","e_long/e_long","i/e","0","same","e/e"
"0p5y","html-keyboard-response",155,525664,"0.0-10.0-1.70",NA,NA,NA,NA,NA,597,"q","blueten1500bluten","Englisch","12","classeshome","selflearn",NA,"uni","classesabroad","immersion","4","18","1 Jahr","blueten","bluten",1,"y","u","u/y","u/y","0","different","u/y"
"0p5y","html-keyboard-response",157,529937,"0.0-10.0-1.71",NA,NA,NA,NA,NA,270,"q","spuelen1500spuelen","Englisch","12","classeshome","selflearn",NA,"uni","classesabroad","immersion","4","18","1 Jahr","spuelen","spuelen",0,"y","y","y/y","y/i","u/y","same","y/y"
"0p5y","html-keyboard-response",159,534300,"0.0-10.0-1.72",NA,NA,NA,NA,NA,1133,"q","tuer1500tuer","Englisch","12","classeshome","selflearn",NA,"uni","classesabroad","immersion","4","18","1 Jahr","tuer","tuer",0,"y","y","y/y","y/i","u/i","same","y/y"
"0p5y","html-keyboard-response",161,538456,"0.0-10.0-1.73",NA,NA,NA,NA,NA,629,"p","leder1500lieder","Englisch","12","classeshome","selflearn",NA,"uni","classesabroad","immersion","4","18","1 Jahr","leder","lieder",1,"e_long","i_long","e_long/i_long","i/e","0","different","e/i"
"0p5y","html-keyboard-response",163,543074,"0.0-10.0-1.74",NA,NA,NA,NA,NA,826,"p","stuhl1500stiel","Englisch","12","classeshome","selflearn",NA,"uni","classesabroad","immersion","4","18","1 Jahr","stuhl","stiel",1,"u","i_long","u/i_long","u/i","0","different","u/i"
"0p5y","html-keyboard-response",165,547055,"0.0-10.0-1.75",NA,NA,NA,NA,NA,748,"p","tour1500tier","Englisch","12","classeshome","selflearn",NA,"uni","classesabroad","immersion","4","18","1 Jahr","tour","tier",1,"u","i_long","u/i_long","u/i","0","different","u/i"
"0p5y","html-keyboard-response",167,551851,"0.0-10.0-1.76",NA,NA,NA,NA,NA,1304,"p","biene1500buehne","Englisch","12","classeshome","selflearn",NA,"uni","classesabroad","immersion","4","18","1 Jahr","biene","buehne",1,"i_long","y","y/i_long","y/i","0","different","i/y"
"0p5y","html-keyboard-response",169,555913,"0.0-10.0-1.77",NA,NA,NA,NA,NA,266,"q","stiel1500stiel","Englisch","12","classeshome","selflearn",NA,"uni","classesabroad","immersion","4","18","1 Jahr","stiel","stiel",0,"i_long","i_long","i_long/i_long","u/i","0","same","i/i"
"0p5y","html-keyboard-response",171,559654,"0.0-10.0-1.78",NA,NA,NA,NA,NA,388,"p","biene1500buehne","Englisch","12","classeshome","selflearn",NA,"uni","classesabroad","immersion","4","18","1 Jahr","biene","buehne",1,"i_long","y","y/i_long","y/i","0","different","i/y"
"0p5y","html-keyboard-response",173,563280,"0.0-10.0-1.79",NA,NA,NA,NA,NA,253,"p","buehne1500biene","Englisch","12","classeshome","selflearn",NA,"uni","classesabroad","immersion","4","18","1 Jahr","buehne","biene",1,"y","i_long","y/i_long","y/i","0","different","i/y"
"0pan","html-keyboard-response",15,226548,"0.0-10.0-1.0",NA,NA,NA,NA,NA,431,"q","tuer1500tuer","Englisch","11",NA,"selflearn",NA,"uni","classesabroad","immersion","Deutsch an der Uni","24","7 Monate","tuer","tuer",0,"y","y","y/y","y/i","u/i","same","y/y"
"0pan","html-keyboard-response",17,231409,"0.0-10.0-1.1",NA,NA,NA,NA,NA,412,"p","spuelen1500spielen","Englisch","11",NA,"selflearn",NA,"uni","classesabroad","immersion","Deutsch an der Uni","24","7 Monate","spuelen","spielen",1,"y","i_long","y/i_long","y/i","0","different","i/y"
"0pan","html-keyboard-response",19,235627,"0.0-10.0-1.2",NA,NA,NA,NA,NA,289,"q","kiel1500kiel","Englisch","11",NA,"selflearn",NA,"uni","classesabroad","immersion","Deutsch an der Uni","24","7 Monate","kiel","kiel",0,"i_long","i_long","i_long/i_long","y/i","0","same","i/i"
"0pan","html-keyboard-response",21,240419,"0.0-10.0-1.3",NA,NA,NA,NA,NA,260,"p","spielen1500spulen","Englisch","11",NA,"selflearn",NA,"uni","classesabroad","immersion","Deutsch an der Uni","24","7 Monate","spielen","spulen",1,"i_long","u","u/i_long","u/i","0","different","u/i"
"0pan","html-keyboard-response",23,244773,"0.0-10.0-1.4",NA,NA,NA,NA,NA,656,"p","tour1500tier","Englisch","11",NA,"selflearn",NA,"uni","classesabroad","immersion","Deutsch an der Uni","24","7 Monate","tour","tier",1,"u","i_long","u/i_long","u/i","0","different","u/i"
"0pan","html-keyboard-response",25,249587,"0.0-10.0-1.5",NA,NA,NA,NA,NA,930,"p","bluten1500blueten","Englisch","11",NA,"selflearn",NA,"uni","classesabroad","immersion","Deutsch an der Uni","24","7 Monate","bluten","blueten",1,"u","y","u/y","u/y","0","different","u/y"
"0pan","html-keyboard-response",27,254323,"0.0-10.0-1.6",NA,NA,NA,NA,NA,406,"p","segel1500siegel","Englisch","11",NA,"selflearn",NA,"uni","classesabroad","immersion","Deutsch an der Uni","24","7 Monate","segel","siegel",1,"e_long","i_long","e_long/i_long","i/e","0","different","e/i"
"0pan","html-keyboard-response",29,259521,"0.0-10.0-1.7",NA,NA,NA,NA,NA,743,"q","spuelen1500spuelen","Englisch","11",NA,"selflearn",NA,"uni","classesabroad","immersion","Deutsch an der Uni","24","7 Monate","spuelen","spuelen",0,"y","y","y/y","y/i","u/y","same","y/y"
"0pan","html-keyboard-response",31,264313,"0.0-10.0-1.8",NA,NA,NA,NA,NA,336,"p","spielen1500spuelen","Englisch","11",NA,"selflearn",NA,"uni","classesabroad","immersion","Deutsch an der Uni","24","7 Monate","spielen","spuelen",1,"i_long","y","y/i_long","y/i","0","different","i/y"
"0pan","html-keyboard-response",33,268496,"0.0-10.0-1.9",NA,NA,NA,NA,NA,361,"p","biene1500buehne","Englisch","11",NA,"selflearn",NA,"uni","classesabroad","immersion","Deutsch an der Uni","24","7 Monate","biene","buehne",1,"i_long","y","y/i_long","y/i","0","different","i/y"
"0pan","html-keyboard-response",35,272321,"0.0-10.0-1.10",NA,NA,NA,NA,NA,283,"q","tuer1500tuer","Englisch","11",NA,"selflearn",NA,"uni","classesabroad","immersion","Deutsch an der Uni","24","7 Monate","tuer","tuer",0,"y","y","y/y","y/i","u/i","same","y/y"
"0pan","html-keyboard-response",37,276698,"0.0-10.0-1.11",NA,NA,NA,NA,NA,403,"q","lieder1500lieder","Englisch","11",NA,"selflearn",NA,"uni","classesabroad","immersion","Deutsch an der Uni","24","7 Monate","lieder","lieder",0,"i_long","i_long","i_long/i_long","i/e","0","same","i/i"
"0pan","html-keyboard-response",39,281242,"0.0-10.0-1.12",NA,NA,NA,NA,NA,246,"p","spielen1500spuelen","Englisch","11",NA,"selflearn",NA,"uni","classesabroad","immersion","Deutsch an der Uni","24","7 Monate","spielen","spuelen",1,"i_long","y","y/i_long","y/i","0","different","i/y"
"0pan","html-keyboard-response",41,285326,"0.0-10.0-1.13",NA,NA,NA,NA,NA,411,"q","tour1500tour","Englisch","11",NA,"selflearn",NA,"uni","classesabroad","immersion","Deutsch an der Uni","24","7 Monate","tour","tour",0,"u","u","u/u","u/i","u/y","same","u/u"
"0pan","html-keyboard-response",43,289950,"0.0-10.0-1.14",NA,NA,NA,NA,NA,273,"p","siegel1500segel","Englisch","11",NA,"selflearn",NA,"uni","classesabroad","immersion","Deutsch an der Uni","24","7 Monate","siegel","segel",1,"i_long","e_long","e_long/i_long","i/e","0","different","e/i"
"0pan","html-keyboard-response",45,294112,"0.0-10.0-1.15",NA,NA,NA,NA,NA,356,"p","buehne1500biene","Englisch","11",NA,"selflearn",NA,"uni","classesabroad","immersion","Deutsch an der Uni","24","7 Monate","buehne","biene",1,"y","i_long","y/i_long","y/i","0","different","i/y"
"0pan","html-keyboard-response",47,297992,"0.0-10.0-1.16",NA,NA,NA,NA,NA,57,"q","buehne1500buehne","Englisch","11",NA,"selflearn",NA,"uni","classesabroad","immersion","Deutsch an der Uni","24","7 Monate","buehne","buehne",0,"y","y","y/y","y/i","0","same","y/y"
"0pan","html-keyboard-response",49,302449,"0.0-10.0-1.17",NA,NA,NA,NA,NA,94,"q","siegel1500siegel","Englisch","11",NA,"selflearn",NA,"uni","classesabroad","immersion","Deutsch an der Uni","24","7 Monate","siegel","siegel",0,"i_long","i_long","i_long/i_long","i/e","0","same","i/i"
"0pan","html-keyboard-response",51,307026,"0.0-10.0-1.18",NA,NA,NA,NA,NA,710,"q","blueten1500bluten","Englisch","11",NA,"selflearn",NA,"uni","classesabroad","immersion","Deutsch an der Uni","24","7 Monate","blueten","bluten",1,"y","u","u/y","u/y","0","different","u/y"
"0pan","html-keyboard-response",53,311458,"0.0-10.0-1.19",NA,NA,NA,NA,NA,83,"q","segel1500segel","Englisch","11",NA,"selflearn",NA,"uni","classesabroad","immersion","Deutsch an der Uni","24","7 Monate","segel","segel",0,"e_long","e_long","e_long/e_long","i/e","0","same","e/e"
"0pan","html-keyboard-response",55,315923,"0.0-10.0-1.20",NA,NA,NA,NA,NA,229,"q","stiel1500stiel","Englisch","11",NA,"selflearn",NA,"uni","classesabroad","immersion","Deutsch an der Uni","24","7 Monate","stiel","stiel",0,"i_long","i_long","i_long/i_long","u/i","0","same","i/i"
"0pan","html-keyboard-response",57,319987,"0.0-10.0-1.21",NA,NA,NA,NA,NA,133,"q","kuehl1500kuehl","Englisch","11",NA,"selflearn",NA,"uni","classesabroad","immersion","Deutsch an der Uni","24","7 Monate","kuehl","kuehl",0,"y","y","y/y","y/i","0","same","y/y"
"0pan","html-keyboard-response",59,324136,"0.0-10.0-1.22",NA,NA,NA,NA,NA,162,"p","leder1500lieder","Englisch","11",NA,"selflearn",NA,"uni","classesabroad","immersion","Deutsch an der Uni","24","7 Monate","leder","lieder",1,"e_long","i_long","e_long/i_long","i/e","0","different","e/i"
"0pan","html-keyboard-response",61,328848,"0.0-10.0-1.23",NA,NA,NA,NA,NA,396,"p","spuelen1500spielen","Englisch","11",NA,"selflearn",NA,"uni","classesabroad","immersion","Deutsch an der Uni","24","7 Monate","spuelen","spielen",1,"y","i_long","y/i_long","y/i","0","different","i/y"
"0pan","html-keyboard-response",63,332977,"0.0-10.0-1.24",NA,NA,NA,NA,NA,383,"q","bluten1500blueten","Englisch","11",NA,"selflearn",NA,"uni","classesabroad","immersion","Deutsch an der Uni","24","7 Monate","bluten","blueten",1,"u","y","u/y","u/y","0","different","u/y"
"0pan","html-keyboard-response",65,337375,"0.0-10.0-1.25",NA,NA,NA,NA,NA,722,"p","tour1500tuer","Englisch","11",NA,"selflearn",NA,"uni","classesabroad","immersion","Deutsch an der Uni","24","7 Monate","tour","tuer",1,"u","y","u/y","u/y","0","different","u/y"
"0pan","html-keyboard-response",67,342123,"0.0-10.0-1.26",NA,NA,NA,NA,NA,509,"q","stuhl1500stuhl","Englisch","11",NA,"selflearn",NA,"uni","classesabroad","immersion","Deutsch an der Uni","24","7 Monate","stuhl","stuhl",0,"u","u","u/u","u/i","0","same","u/u"
"0pan","html-keyboard-response",69,346599,"0.0-10.0-1.27",NA,NA,NA,NA,NA,125,"p","spielen1500spulen","Englisch","11",NA,"selflearn",NA,"uni","classesabroad","immersion","Deutsch an der Uni","24","7 Monate","spielen","spulen",1,"i_long","u","u/i_long","u/i","0","different","u/i"
"0pan","html-keyboard-response",71,351775,"0.0-10.0-1.28",NA,NA,NA,NA,NA,881,"p","spulen1500spuelen","Englisch","11",NA,"selflearn",NA,"uni","classesabroad","immersion","Deutsch an der Uni","24","7 Monate","spulen","spuelen",1,"u","y","u/y","u/y","0","different","u/y"
"0pan","html-keyboard-response",73,355971,"0.0-10.0-1.29",NA,NA,NA,NA,NA,457,"q","blueten1500bluten","Englisch","11",NA,"selflearn",NA,"uni","classesabroad","immersion","Deutsch an der Uni","24","7 Monate","blueten","bluten",1,"y","u","u/y","u/y","0","different","u/y"
"0pan","html-keyboard-response",75,359953,"0.0-10.0-1.30",NA,NA,NA,NA,NA,300,"p","buehne1500biene","Englisch","11",NA,"selflearn",NA,"uni","classesabroad","immersion","Deutsch an der Uni","24","7 Monate","buehne","biene",1,"y","i_long","y/i_long","y/i","0","different","i/y"
"0pan","html-keyboard-response",77,363935,"0.0-10.0-1.31",NA,NA,NA,NA,NA,322,"p","biene1500buehne","Englisch","11",NA,"selflearn",NA,"uni","classesabroad","immersion","Deutsch an der Uni","24","7 Monate","biene","buehne",1,"i_long","y","y/i_long","y/i","0","different","i/y"
"0pan","html-keyboard-response",79,368581,"0.0-10.0-1.32",NA,NA,NA,NA,NA,448,"p","segel1500siegel","Englisch","11",NA,"selflearn",NA,"uni","classesabroad","immersion","Deutsch an der Uni","24","7 Monate","segel","siegel",1,"e_long","i_long","e_long/i_long","i/e","0","different","e/i"
"0pan","html-keyboard-response",81,373227,"0.0-10.0-1.33",NA,NA,NA,NA,NA,154,"p","spulen1500spielen","Englisch","11",NA,"selflearn",NA,"uni","classesabroad","immersion","Deutsch an der Uni","24","7 Monate","spulen","spielen",1,"u","i_long","u/i_long","u/i","0","different","u/i"
"0pan","html-keyboard-response",83,377287,"0.0-10.0-1.34",NA,NA,NA,NA,NA,373,"p","tier1500tour","Englisch","11",NA,"selflearn",NA,"uni","classesabroad","immersion","Deutsch an der Uni","24","7 Monate","tier","tour",1,"i_long","u","u/i_long","u/i","0","different","u/i"
"0pan","html-keyboard-response",85,381450,"0.0-10.0-1.35",NA,NA,NA,NA,NA,338,"q","kuehl1500kuehl","Englisch","11",NA,"selflearn",NA,"uni","classesabroad","immersion","Deutsch an der Uni","24","7 Monate","kuehl","kuehl",0,"y","y","y/y","y/i","0","same","y/y"
"0pan","html-keyboard-response",87,385882,"0.0-10.0-1.36",NA,NA,NA,NA,NA,450,"q","leder1500leder","Englisch","11",NA,"selflearn",NA,"uni","classesabroad","immersion","Deutsch an der Uni","24","7 Monate","leder","leder",0,"e_long","e_long","e_long/e_long","i/e","0","same","e/e"
"0pan","html-keyboard-response",89,390303,"0.0-10.0-1.37",NA,NA,NA,NA,NA,452,"p","lieder1500leder","Englisch","11",NA,"selflearn",NA,"uni","classesabroad","immersion","Deutsch an der Uni","24","7 Monate","lieder","leder",1,"i_long","e_long","e_long/i_long","i/e","0","different","e/i"
"0pan","html-keyboard-response",91,394893,"0.0-10.0-1.38",NA,NA,NA,NA,NA,480,"q","stuhl1500stuhl","Englisch","11",NA,"selflearn",NA,"uni","classesabroad","immersion","Deutsch an der Uni","24","7 Monate","stuhl","stuhl",0,"u","u","u/u","u/i","0","same","u/u"
"0pan","html-keyboard-response",93,399707,"0.0-10.0-1.39",NA,NA,NA,NA,NA,650,"p","spulen1500spuelen","Englisch","11",NA,"selflearn",NA,"uni","classesabroad","immersion","Deutsch an der Uni","24","7 Monate","spulen","spuelen",1,"u","y","u/y","u/y","0","different","u/y"
"0pan","html-keyboard-response",95,404071,"0.0-10.0-1.40",NA,NA,NA,NA,NA,263,"q","stiel1500stiel","Englisch","11",NA,"selflearn",NA,"uni","classesabroad","immersion","Deutsch an der Uni","24","7 Monate","stiel","stiel",0,"i_long","i_long","i_long/i_long","u/i","0","same","i/i"
"0pan","html-keyboard-response",97,408348,"0.0-10.0-1.41",NA,NA,NA,NA,NA,395,"q","bluten1500bluten","Englisch","11",NA,"selflearn",NA,"uni","classesabroad","immersion","Deutsch an der Uni","24","7 Monate","bluten","bluten",0,"u","u","u/u","u/y","0","same","u/u"
"0pan","html-keyboard-response",99,412486,"0.0-10.0-1.42",NA,NA,NA,NA,NA,294,"q","leder1500leder","Englisch","11",NA,"selflearn",NA,"uni","classesabroad","immersion","Deutsch an der Uni","24","7 Monate","leder","leder",0,"e_long","e_long","e_long/e_long","i/e","0","same","e/e"
"0pan","html-keyboard-response",101,416446,"0.0-10.0-1.43",NA,NA,NA,NA,NA,135,"q","lieder1500lieder","Englisch","11",NA,"selflearn",NA,"uni","classesabroad","immersion","Deutsch an der Uni","24","7 Monate","lieder","lieder",0,"i_long","i_long","i_long/i_long","i/e","0","same","i/i"
"0pan","html-keyboard-response",103,420822,"0.0-10.0-1.44",NA,NA,NA,NA,NA,191,"p","siegel1500segel","Englisch","11",NA,"selflearn",NA,"uni","classesabroad","immersion","Deutsch an der Uni","24","7 Monate","siegel","segel",1,"i_long","e_long","e_long/i_long","i/e","0","different","e/i"
"0pan","html-keyboard-response",105,424995,"0.0-10.0-1.45",NA,NA,NA,NA,NA,506,"q","tier1500tier","Englisch","11",NA,"selflearn",NA,"uni","classesabroad","immersion","Deutsch an der Uni","24","7 Monate","tier","tier",0,"i_long","i_long","i_long/i_long","y/i","u/i","same","i/i"
"0pan","html-keyboard-response",107,429090,"0.0-10.0-1.46",NA,NA,NA,NA,NA,220,"q","blueten1500blueten","Englisch","11",NA,"selflearn",NA,"uni","classesabroad","immersion","Deutsch an der Uni","24","7 Monate","blueten","blueten",0,"y","y","y/y","u/y","0","same","y/y"
"0pan","html-keyboard-response",109,433095,"0.0-10.0-1.47",NA,NA,NA,NA,NA,163,"p","leder1500lieder","Englisch","11",NA,"selflearn",NA,"uni","classesabroad","immersion","Deutsch an der Uni","24","7 Monate","leder","lieder",1,"e_long","i_long","e_long/i_long","i/e","0","different","e/i"
"0pan","html-keyboard-response",111,437413,"0.0-10.0-1.48",NA,NA,NA,NA,NA,123,"q","siegel1500siegel","Englisch","11",NA,"selflearn",NA,"uni","classesabroad","immersion","Deutsch an der Uni","24","7 Monate","siegel","siegel",0,"i_long","i_long","i_long/i_long","i/e","0","same","i/i"
"0pan","html-keyboard-response",113,441216,"0.0-10.0-1.49",NA,NA,NA,NA,NA,45,"q","blueten1500blueten","Englisch","11",NA,"selflearn",NA,"uni","classesabroad","immersion","Deutsch an der Uni","24","7 Monate","blueten","blueten",0,"y","y","y/y","u/y","0","same","y/y"
"0pan","html-keyboard-response",115,445615,"0.0-10.0-1.50",NA,NA,NA,NA,NA,166,"p","stuhl1500stiel","Englisch","11",NA,"selflearn",NA,"uni","classesabroad","immersion","Deutsch an der Uni","24","7 Monate","stuhl","stiel",1,"u","i_long","u/i_long","u/i","0","different","u/i"
"0pan","html-keyboard-response",117,450171,"0.0-10.0-1.51",NA,NA,NA,NA,NA,321,"p","stiel1500stuhl","Englisch","11",NA,"selflearn",NA,"uni","classesabroad","immersion","Deutsch an der Uni","24","7 Monate","stiel","stuhl",1,"i_long","u","u/i_long","u/i","0","different","u/i"
"0pan","html-keyboard-response",119,453895,"0.0-10.0-1.52",NA,NA,NA,NA,NA,186,"q","tier1500tier","Englisch","11",NA,"selflearn",NA,"uni","classesabroad","immersion","Deutsch an der Uni","24","7 Monate","tier","tier",0,"i_long","i_long","i_long/i_long","y/i","u/i","same","i/i"
"0pan","html-keyboard-response",121,458000,"0.0-10.0-1.53",NA,NA,NA,NA,NA,552,"p","tour1500tier","Englisch","11",NA,"selflearn",NA,"uni","classesabroad","immersion","Deutsch an der Uni","24","7 Monate","tour","tier",1,"u","i_long","u/i_long","u/i","0","different","u/i"
"0pan","html-keyboard-response",123,462342,"0.0-10.0-1.54",NA,NA,NA,NA,NA,394,"p","kuehl1500kiel","Englisch","11",NA,"selflearn",NA,"uni","classesabroad","immersion","Deutsch an der Uni","24","7 Monate","kuehl","kiel",1,"y","i_long","y/i_long","y/i","0","different","i/y"
"0pan","html-keyboard-response",125,466369,"0.0-10.0-1.55",NA,NA,NA,NA,NA,280,"q","bluten1500bluten","Englisch","11",NA,"selflearn",NA,"uni","classesabroad","immersion","Deutsch an der Uni","24","7 Monate","bluten","bluten",0,"u","u","u/u","u/y","0","same","u/u"
"0pan","html-keyboard-response",127,470892,"0.0-10.0-1.56",NA,NA,NA,NA,NA,62,"q","spielen1500spielen","Englisch","11",NA,"selflearn",NA,"uni","classesabroad","immersion","Deutsch an der Uni","24","7 Monate","spielen","spielen",0,"i_long","i_long","i_long/i_long","u/i","y/i","same","i/i"
"0pan","html-keyboard-response",129,474672,"0.0-10.0-1.57",NA,NA,NA,NA,NA,223,"q","tour1500tour","Englisch","11",NA,"selflearn",NA,"uni","classesabroad","immersion","Deutsch an der Uni","24","7 Monate","tour","tour",0,"u","u","u/u","u/i","u/y","same","u/u"
"0pan","html-keyboard-response",131,479194,"0.0-10.0-1.58",NA,NA,NA,NA,NA,184,"q","spielen1500spielen","Englisch","11",NA,"selflearn",NA,"uni","classesabroad","immersion","Deutsch an der Uni","24","7 Monate","spielen","spielen",0,"i_long","i_long","i_long/i_long","u/i","y/i","same","i/i"
"0pan","html-keyboard-response",133,483188,"0.0-10.0-1.59",NA,NA,NA,NA,NA,59,"p","kiel1500kuehl","Englisch","11",NA,"selflearn",NA,"uni","classesabroad","immersion","Deutsch an der Uni","24","7 Monate","kiel","kuehl",1,"i_long","y","y/i_long","y/i","0","different","i/y"
"0pan","html-keyboard-response",135,487068,"0.0-10.0-1.60",NA,NA,NA,NA,NA,299,"p","tier1500tour","Englisch","11",NA,"selflearn",NA,"uni","classesabroad","immersion","Deutsch an der Uni","24","7 Monate","tier","tour",1,"i_long","u","u/i_long","u/i","0","different","u/i"
"0pan","html-keyboard-response",137,491242,"0.0-10.0-1.61",NA,NA,NA,NA,NA,493,"q","buehne1500buehne","Englisch","11",NA,"selflearn",NA,"uni","classesabroad","immersion","Deutsch an der Uni","24","7 Monate","buehne","buehne",0,"y","y","y/y","y/i","0","same","y/y"
"0pan","html-keyboard-response",139,495561,"0.0-10.0-1.62",NA,NA,NA,NA,NA,193,"p","stiel1500stuhl","Englisch","11",NA,"selflearn",NA,"uni","classesabroad","immersion","Deutsch an der Uni","24","7 Monate","stiel","stuhl",1,"i_long","u","u/i_long","u/i","0","different","u/i"
"0pan","html-keyboard-response",141,499747,"0.0-10.0-1.63",NA,NA,NA,NA,NA,358,"q","biene1500biene","Englisch","11",NA,"selflearn",NA,"uni","classesabroad","immersion","Deutsch an der Uni","24","7 Monate","biene","biene",0,"i_long","i_long","i_long/i_long","y/i","0","same","i/i"
"0pan","html-keyboard-response",143,503683,"0.0-10.0-1.64",NA,NA,NA,NA,NA,396,"p","tour1500tuer","Englisch","11",NA,"selflearn",NA,"uni","classesabroad","immersion","Deutsch an der Uni","24","7 Monate","tour","tuer",1,"u","y","u/y","u/y","0","different","u/y"
"0pan","html-keyboard-response",145,508171,"0.0-10.0-1.65",NA,NA,NA,NA,NA,823,"p","tuer1500tour","Englisch","11",NA,"selflearn",NA,"uni","classesabroad","immersion","Deutsch an der Uni","24","7 Monate","tuer","tour",1,"y","u","u/y","u/y","0","different","u/y"
"0pan","html-keyboard-response",147,512108,"0.0-10.0-1.66",NA,NA,NA,NA,NA,141,"q","kiel1500kiel","Englisch","11",NA,"selflearn",NA,"uni","classesabroad","immersion","Deutsch an der Uni","24","7 Monate","kiel","kiel",0,"i_long","i_long","i_long/i_long","y/i","0","same","i/i"
"0pan","html-keyboard-response",149,515934,"0.0-10.0-1.67",NA,NA,NA,NA,NA,287,"p","tuer1500tour","Englisch","11",NA,"selflearn",NA,"uni","classesabroad","immersion","Deutsch an der Uni","24","7 Monate","tuer","tour",1,"y","u","u/y","u/y","0","different","u/y"
"0pan","html-keyboard-response",151,519826,"0.0-10.0-1.68",NA,NA,NA,NA,NA,217,"q","biene1500biene","Englisch","11",NA,"selflearn",NA,"uni","classesabroad","immersion","Deutsch an der Uni","24","7 Monate","biene","biene",0,"i_long","i_long","i_long/i_long","y/i","0","same","i/i"
"0pan","html-keyboard-response",153,524021,"0.0-10.0-1.69",NA,NA,NA,NA,NA,374,"p","kiel1500kuehl","Englisch","11",NA,"selflearn",NA,"uni","classesabroad","immersion","Deutsch an der Uni","24","7 Monate","kiel","kuehl",1,"i_long","y","y/i_long","y/i","0","different","i/y"
"0pan","html-keyboard-response",155,527981,"0.0-10.0-1.70",NA,NA,NA,NA,NA,134,"p","lieder1500leder","Englisch","11",NA,"selflearn",NA,"uni","classesabroad","immersion","Deutsch an der Uni","24","7 Monate","lieder","leder",1,"i_long","e_long","e_long/i_long","i/e","0","different","e/i"
"0pan","html-keyboard-response",157,532054,"0.0-10.0-1.71",NA,NA,NA,NA,NA,266,"p","kuehl1500kiel","Englisch","11",NA,"selflearn",NA,"uni","classesabroad","immersion","Deutsch an der Uni","24","7 Monate","kuehl","kiel",1,"y","i_long","y/i_long","y/i","0","different","i/y"
"0pan","html-keyboard-response",159,536790,"0.0-10.0-1.72",NA,NA,NA,NA,NA,442,"p","spuelen1500spulen","Englisch","11",NA,"selflearn",NA,"uni","classesabroad","immersion","Deutsch an der Uni","24","7 Monate","spuelen","spulen",1,"y","u","u/y","u/y","0","different","u/y"
"0pan","html-keyboard-response",161,541076,"0.0-10.0-1.73",NA,NA,NA,NA,NA,171,"p","stuhl1500stiel","Englisch","11",NA,"selflearn",NA,"uni","classesabroad","immersion","Deutsch an der Uni","24","7 Monate","stuhl","stiel",1,"u","i_long","u/i_long","u/i","0","different","u/i"
"0pan","html-keyboard-response",163,545834,"0.0-10.0-1.74",NA,NA,NA,NA,NA,387,"p","spulen1500spielen","Englisch","11",NA,"selflearn",NA,"uni","classesabroad","immersion","Deutsch an der Uni","24","7 Monate","spulen","spielen",1,"u","i_long","u/i_long","u/i","0","different","u/i"
"0pan","html-keyboard-response",165,550278,"0.0-10.0-1.75",NA,NA,NA,NA,NA,231,"q","segel1500segel","Englisch","11",NA,"selflearn",NA,"uni","classesabroad","immersion","Deutsch an der Uni","24","7 Monate","segel","segel",0,"e_long","e_long","e_long/e_long","i/e","0","same","e/e"
"0pan","html-keyboard-response",167,555114,"0.0-10.0-1.76",NA,NA,NA,NA,NA,328,"q","spulen1500spulen","Englisch","11",NA,"selflearn",NA,"uni","classesabroad","immersion","Deutsch an der Uni","24","7 Monate","spulen","spulen",0,"u","u","u/u","u/i","u/y","same","u/u"
"0pan","html-keyboard-response",169,559806,"0.0-10.0-1.77",NA,NA,NA,NA,NA,520,"p","spuelen1500spulen","Englisch","11",NA,"selflearn",NA,"uni","classesabroad","immersion","Deutsch an der Uni","24","7 Monate","spuelen","spulen",1,"y","u","u/y","u/y","0","different","u/y"
"0pan","html-keyboard-response",171,564260,"0.0-10.0-1.78",NA,NA,NA,NA,NA,94,"q","spulen1500spulen","Englisch","11",NA,"selflearn",NA,"uni","classesabroad","immersion","Deutsch an der Uni","24","7 Monate","spulen","spulen",0,"u","u","u/u","u/i","u/y","same","u/u"
"0pan","html-keyboard-response",173,568782,"0.0-10.0-1.79",NA,NA,NA,NA,NA,197,"q","spuelen1500spuelen","Englisch","11",NA,"selflearn",NA,"uni","classesabroad","immersion","Deutsch an der Uni","24","7 Monate","spuelen","spuelen",0,"y","y","y/y","y/i","u/y","same","y/y"
"33qh","html-keyboard-response",18,325935,"0.0-10.0-1.2",NA,NA,NA,NA,NA,4431,"p","spuelen1500spulen","Englisch","10",NA,NA,NA,"uni",NA,"immersion","durch Immersion","10","4 Jahre","spuelen","spulen",1,"y","u","u/y","u/y","0","different","u/y"
"33qh","html-keyboard-response",20,332239,"0.0-10.0-1.3",NA,NA,NA,NA,NA,2283,"q","segel1500segel","Englisch","10",NA,NA,NA,"uni",NA,"immersion","durch Immersion","10","4 Jahre","segel","segel",0,"e_long","e_long","e_long/e_long","i/e","0","same","e/e"
"33qh","html-keyboard-response",22,337024,"0.0-10.0-1.4",NA,NA,NA,NA,NA,635,"p","spuelen1500spielen","Englisch","10",NA,NA,NA,"uni",NA,"immersion","durch Immersion","10","4 Jahre","spuelen","spielen",1,"y","i_long","y/i_long","y/i","0","different","i/y"
"33qh","html-keyboard-response",24,341247,"0.0-10.0-1.5",NA,NA,NA,NA,NA,633,"q","kuehl1500kiel","Englisch","10",NA,NA,NA,"uni",NA,"immersion","durch Immersion","10","4 Jahre","kuehl","kiel",1,"y","i_long","y/i_long","y/i","0","different","i/y"
"33qh","html-keyboard-response",26,347552,"0.0-10.0-1.6",NA,NA,NA,NA,NA,2734,"p","bluten1500blueten","Englisch","10",NA,NA,NA,"uni",NA,"immersion","durch Immersion","10","4 Jahre","bluten","blueten",1,"u","y","u/y","u/y","0","different","u/y"
"33qh","html-keyboard-response",28,351856,"0.0-10.0-1.7",NA,NA,NA,NA,NA,955,"p","tour1500tier","Englisch","10",NA,NA,NA,"uni",NA,"immersion","durch Immersion","10","4 Jahre","tour","tier",1,"u","i_long","u/i_long","u/i","0","different","u/i"
"33qh","html-keyboard-response",30,356464,"0.0-10.0-1.8",NA,NA,NA,NA,NA,687,"q","stiel1500stiel","Englisch","10",NA,NA,NA,"uni",NA,"immersion","durch Immersion","10","4 Jahre","stiel","stiel",0,"i_long","i_long","i_long/i_long","u/i","0","same","i/i"
"33qh","html-keyboard-response",32,360656,"0.0-10.0-1.9",NA,NA,NA,NA,NA,699,"p","biene1500buehne","Englisch","10",NA,NA,NA,"uni",NA,"immersion","durch Immersion","10","4 Jahre","biene","buehne",1,"i_long","y","y/i_long","y/i","0","different","i/y"
"33qh","html-keyboard-response",34,364544,"0.0-10.0-1.10",NA,NA,NA,NA,NA,291,"q","kuehl1500kuehl","Englisch","10",NA,NA,NA,"uni",NA,"immersion","durch Immersion","10","4 Jahre","kuehl","kuehl",0,"y","y","y/y","y/i","0","same","y/y"
"33qh","html-keyboard-response",36,369393,"0.0-10.0-1.11",NA,NA,NA,NA,NA,635,"q","spielen1500spielen","Englisch","10",NA,NA,NA,"uni",NA,"immersion","durch Immersion","10","4 Jahre","spielen","spielen",0,"i_long","i_long","i_long/i_long","u/i","y/i","same","i/i"
"33qh","html-keyboard-response",38,373761,"0.0-10.0-1.12",NA,NA,NA,NA,NA,707,"p","lieder1500leder","Englisch","10",NA,NA,NA,"uni",NA,"immersion","durch Immersion","10","4 Jahre","lieder","leder",1,"i_long","e_long","e_long/i_long","i/e","0","different","e/i"
"33qh","html-keyboard-response",40,378225,"0.0-10.0-1.13",NA,NA,NA,NA,NA,852,"p","kiel1500kuehl","Englisch","10",NA,NA,NA,"uni",NA,"immersion","durch Immersion","10","4 Jahre","kiel","kuehl",1,"i_long","y","y/i_long","y/i","0","different","i/y"
"33qh","html-keyboard-response",42,382577,"0.0-10.0-1.14",NA,NA,NA,NA,NA,862,"q","buehne1500buehne","Englisch","10",NA,NA,NA,"uni",NA,"immersion","durch Immersion","10","4 Jahre","buehne","buehne",0,"y","y","y/y","y/i","0","same","y/y"
"33qh","html-keyboard-response",44,388241,"0.0-10.0-1.15",NA,NA,NA,NA,NA,1626,"p","spuelen1500spielen","Englisch","10",NA,NA,NA,"uni",NA,"immersion","durch Immersion","10","4 Jahre","spuelen","spielen",1,"y","i_long","y/i_long","y/i","0","different","i/y"
"33qh","html-keyboard-response",46,392529,"0.0-10.0-1.16",NA,NA,NA,NA,NA,690,"q","kiel1500kiel","Englisch","10",NA,NA,NA,"uni",NA,"immersion","durch Immersion","10","4 Jahre","kiel","kiel",0,"i_long","i_long","i_long/i_long","y/i","0","same","i/i"
"33qh","html-keyboard-response",48,397013,"0.0-10.0-1.17",NA,NA,NA,NA,NA,274,"q","spuelen1500spuelen","Englisch","10",NA,NA,NA,"uni",NA,"immersion","durch Immersion","10","4 Jahre","spuelen","spuelen",0,"y","y","y/y","y/i","u/y","same","y/y"
"33qh","html-keyboard-response",50,400882,"0.0-10.0-1.18",NA,NA,NA,NA,NA,497,"q","tier1500tier","Englisch","10",NA,NA,NA,"uni",NA,"immersion","durch Immersion","10","4 Jahre","tier","tier",0,"i_long","i_long","i_long/i_long","y/i","u/i","same","i/i"
"33qh","html-keyboard-response",52,405010,"0.0-10.0-1.19",NA,NA,NA,NA,NA,144,"p","spulen1500spuelen","Englisch","10",NA,NA,NA,"uni",NA,"immersion","durch Immersion","10","4 Jahre","spulen","spuelen",1,"u","y","u/y","u/y","0","different","u/y"
"33qh","html-keyboard-response",54,409282,"0.0-10.0-1.20",NA,NA,NA,NA,NA,840,"p","bluten1500blueten","Englisch","10",NA,NA,NA,"uni",NA,"immersion","durch Immersion","10","4 Jahre","bluten","blueten",1,"u","y","u/y","u/y","0","different","u/y"
"33qh","html-keyboard-response",56,413282,"0.0-10.0-1.21",NA,NA,NA,NA,NA,335,"q","lieder1500lieder","Englisch","10",NA,NA,NA,"uni",NA,"immersion","durch Immersion","10","4 Jahre","lieder","lieder",0,"i_long","i_long","i_long/i_long","i/e","0","same","i/i"
"33qh","html-keyboard-response",58,417170,"0.0-10.0-1.22",NA,NA,NA,NA,NA,415,"q","biene1500biene","Englisch","10",NA,NA,NA,"uni",NA,"immersion","durch Immersion","10","4 Jahre","biene","biene",0,"i_long","i_long","i_long/i_long","y/i","0","same","i/i"
"33qh","html-keyboard-response",60,422290,"0.0-10.0-1.23",NA,NA,NA,NA,NA,961,"q","spulen1500spulen","Englisch","10",NA,NA,NA,"uni",NA,"immersion","durch Immersion","10","4 Jahre","spulen","spulen",0,"u","u","u/u","u/i","u/y","same","u/u"
"33qh","html-keyboard-response",62,427458,"0.0-10.0-1.24",NA,NA,NA,NA,NA,1136,"q","spuelen1500spuelen","Englisch","10",NA,NA,NA,"uni",NA,"immersion","durch Immersion","10","4 Jahre","spuelen","spuelen",0,"y","y","y/y","y/i","u/y","same","y/y"
"33qh","html-keyboard-response",64,431506,"0.0-10.0-1.25",NA,NA,NA,NA,NA,679,"q","biene1500biene","Englisch","10",NA,NA,NA,"uni",NA,"immersion","durch Immersion","10","4 Jahre","biene","biene",0,"i_long","i_long","i_long/i_long","y/i","0","same","i/i"
"33qh","html-keyboard-response",66,437074,"0.0-10.0-1.26",NA,NA,NA,NA,NA,1557,"p","segel1500siegel","Englisch","10",NA,NA,NA,"uni",NA,"immersion","durch Immersion","10","4 Jahre","segel","siegel",1,"e_long","i_long","e_long/i_long","i/e","0","different","e/i"
"33qh","html-keyboard-response",68,441603,"0.0-10.0-1.27",NA,NA,NA,NA,NA,513,"p","siegel1500segel","Englisch","10",NA,NA,NA,"uni",NA,"immersion","durch Immersion","10","4 Jahre","siegel","segel",1,"i_long","e_long","e_long/i_long","i/e","0","different","e/i"
"33qh","html-keyboard-response",70,447011,"0.0-10.0-1.28",NA,NA,NA,NA,NA,1230,"p","spielen1500spulen","Englisch","10",NA,NA,NA,"uni",NA,"immersion","durch Immersion","10","4 Jahre","spielen","spulen",1,"i_long","u","u/i_long","u/i","0","different","u/i"
"33qh","html-keyboard-response",72,451651,"0.0-10.0-1.29",NA,NA,NA,NA,NA,739,"p","siegel1500segel","Englisch","10",NA,NA,NA,"uni",NA,"immersion","durch Immersion","10","4 Jahre","siegel","segel",1,"i_long","e_long","e_long/i_long","i/e","0","different","e/i"
"33qh","html-keyboard-response",74,455779,"0.0-10.0-1.30",NA,NA,NA,NA,NA,757,"p","tour1500tuer","Englisch","10",NA,NA,NA,"uni",NA,"immersion","durch Immersion","10","4 Jahre","tour","tuer",1,"u","y","u/y","u/y","0","different","u/y"
"33qh","html-keyboard-response",76,459667,"0.0-10.0-1.31",NA,NA,NA,NA,NA,395,"p","kuehl1500kiel","Englisch","10",NA,NA,NA,"uni",NA,"immersion","durch Immersion","10","4 Jahre","kuehl","kiel",1,"y","i_long","y/i_long","y/i","0","different","i/y"
"33qh","html-keyboard-response",78,463491,"0.0-10.0-1.32",NA,NA,NA,NA,NA,272,"q","bluten1500bluten","Englisch","10",NA,NA,NA,"uni",NA,"immersion","durch Immersion","10","4 Jahre","bluten","bluten",0,"u","u","u/u","u/y","0","same","u/u"
"33qh","html-keyboard-response",80,467811,"0.0-10.0-1.33",NA,NA,NA,NA,NA,389,"q","stuhl1500stuhl","Englisch","10",NA,NA,NA,"uni",NA,"immersion","durch Immersion","10","4 Jahre","stuhl","stuhl",0,"u","u","u/u","u/i","0","same","u/u"
"33qh","html-keyboard-response",82,471716,"0.0-10.0-1.34",NA,NA,NA,NA,NA,531,"p","biene1500buehne","Englisch","10",NA,NA,NA,"uni",NA,"immersion","durch Immersion","10","4 Jahre","biene","buehne",1,"i_long","y","y/i_long","y/i","0","different","i/y"
"33qh","html-keyboard-response",84,475924,"0.0-10.0-1.35",NA,NA,NA,NA,NA,165,"q","spulen1500spulen","Englisch","10",NA,NA,NA,"uni",NA,"immersion","durch Immersion","10","4 Jahre","spulen","spulen",0,"u","u","u/u","u/i","u/y","same","u/u"
"33qh","html-keyboard-response",86,479652,"0.0-10.0-1.36",NA,NA,NA,NA,NA,201,"q","lieder1500lieder","Englisch","10",NA,NA,NA,"uni",NA,"immersion","durch Immersion","10","4 Jahre","lieder","lieder",0,"i_long","i_long","i_long/i_long","i/e","0","same","i/i"
"33qh","html-keyboard-response",88,483268,"0.0-10.0-1.37",NA,NA,NA,NA,NA,357,"p","tuer1500tour","Englisch","10",NA,NA,NA,"uni",NA,"immersion","durch Immersion","10","4 Jahre","tuer","tour",1,"y","u","u/y","u/y","0","different","u/y"
"33qh","html-keyboard-response",90,487636,"0.0-10.0-1.38",NA,NA,NA,NA,NA,708,"p","leder1500lieder","Englisch","10",NA,NA,NA,"uni",NA,"immersion","durch Immersion","10","4 Jahre","leder","lieder",1,"e_long","i_long","e_long/i_long","i/e","0","different","e/i"
"33qh","html-keyboard-response",92,491524,"0.0-10.0-1.39",NA,NA,NA,NA,NA,394,"q","kuehl1500kuehl","Englisch","10",NA,NA,NA,"uni",NA,"immersion","durch Immersion","10","4 Jahre","kuehl","kuehl",0,"y","y","y/y","y/i","0","same","y/y"
"33qh","html-keyboard-response",94,495460,"0.0-10.0-1.40",NA,NA,NA,NA,NA,80,"p","spuelen1500spulen","Englisch","10",NA,NA,NA,"uni",NA,"immersion","durch Immersion","10","4 Jahre","spuelen","spulen",1,"y","u","u/y","u/y","0","different","u/y"
"33qh","html-keyboard-response",96,499332,"0.0-10.0-1.41",NA,NA,NA,NA,NA,307,"q","blueten1500bluten","Englisch","10",NA,NA,NA,"uni",NA,"immersion","durch Immersion","10","4 Jahre","blueten","bluten",1,"y","u","u/y","u/y","0","different","u/y"
"33qh","html-keyboard-response",98,503668,"0.0-10.0-1.42",NA,NA,NA,NA,NA,417,"q","stuhl1500stiel","Englisch","10",NA,NA,NA,"uni",NA,"immersion","durch Immersion","10","4 Jahre","stuhl","stiel",1,"u","i_long","u/i_long","u/i","0","different","u/i"
"33qh","html-keyboard-response",100,507685,"0.0-10.0-1.43",NA,NA,NA,NA,NA,369,"q","leder1500leder","Englisch","10",NA,NA,NA,"uni",NA,"immersion","durch Immersion","10","4 Jahre","leder","leder",0,"e_long","e_long","e_long/e_long","i/e","0","same","e/e"
"33qh","html-keyboard-response",102,511861,"0.0-10.0-1.44",NA,NA,NA,NA,NA,249,"p","stiel1500stuhl","Englisch","10",NA,NA,NA,"uni",NA,"immersion","durch Immersion","10","4 Jahre","stiel","stuhl",1,"i_long","u","u/i_long","u/i","0","different","u/i"
"33qh","html-keyboard-response",104,515605,"0.0-10.0-1.45",NA,NA,NA,NA,NA,302,"p","blueten1500bluten","Englisch","10",NA,NA,NA,"uni",NA,"immersion","durch Immersion","10","4 Jahre","blueten","bluten",1,"y","u","u/y","u/y","0","different","u/y"
"33qh","html-keyboard-response",106,519605,"0.0-10.0-1.46",NA,NA,NA,NA,NA,517,"q","kiel1500kiel","Englisch","10",NA,NA,NA,"uni",NA,"immersion","durch Immersion","10","4 Jahre","kiel","kiel",0,"i_long","i_long","i_long/i_long","y/i","0","same","i/i"
"33qh","html-keyboard-response",108,523765,"0.0-10.0-1.47",NA,NA,NA,NA,NA,126,"q","spielen1500spielen","Englisch","10",NA,NA,NA,"uni",NA,"immersion","durch Immersion","10","4 Jahre","spielen","spielen",0,"i_long","i_long","i_long/i_long","u/i","y/i","same","i/i"
"33qh","html-keyboard-response",110,527701,"0.0-10.0-1.48",NA,NA,NA,NA,NA,393,"p","lieder1500leder","Englisch","10",NA,NA,NA,"uni",NA,"immersion","durch Immersion","10","4 Jahre","lieder","leder",1,"i_long","e_long","e_long/i_long","i/e","0","different","e/i"
"33qh","html-keyboard-response",112,532133,"0.0-10.0-1.49",NA,NA,NA,NA,NA,274,"q","spulen1500spielen","Englisch","10",NA,NA,NA,"uni",NA,"immersion","durch Immersion","10","4 Jahre","spulen","spielen",1,"u","i_long","u/i_long","u/i","0","different","u/i"
"33qh","html-keyboard-response",114,536374,"0.0-10.0-1.50",NA,NA,NA,NA,NA,195,"p","spulen1500spielen","Englisch","10",NA,NA,NA,"uni",NA,"immersion","durch Immersion","10","4 Jahre","spulen","spielen",1,"u","i_long","u/i_long","u/i","0","different","u/i"
"33qh","html-keyboard-response",116,540246,"0.0-10.0-1.51",NA,NA,NA,NA,NA,514,"q","tuer1500tuer","Englisch","10",NA,NA,NA,"uni",NA,"immersion","durch Immersion","10","4 Jahre","tuer","tuer",0,"y","y","y/y","y/i","u/i","same","y/y"
"33qh","html-keyboard-response",118,543846,"0.0-10.0-1.52",NA,NA,NA,NA,NA,236,"p","tier1500tour","Englisch","10",NA,NA,NA,"uni",NA,"immersion","durch Immersion","10","4 Jahre","tier","tour",1,"i_long","u","u/i_long","u/i","0","different","u/i"
"33qh","html-keyboard-response",120,547878,"0.0-10.0-1.53",NA,NA,NA,NA,NA,553,"p","buehne1500biene","Englisch","10",NA,NA,NA,"uni",NA,"immersion","durch Immersion","10","4 Jahre","buehne","biene",1,"y","i_long","y/i_long","y/i","0","different","i/y"
"33qh","html-keyboard-response",122,551398,"0.0-10.0-1.54",NA,NA,NA,NA,NA,265,"q","tier1500tier","Englisch","10",NA,NA,NA,"uni",NA,"immersion","durch Immersion","10","4 Jahre","tier","tier",0,"i_long","i_long","i_long/i_long","y/i","u/i","same","i/i"
"33qh","html-keyboard-response",124,554822,"0.0-10.0-1.55",NA,NA,NA,NA,NA,160,"q","tuer1500tuer","Englisch","10",NA,NA,NA,"uni",NA,"immersion","durch Immersion","10","4 Jahre","tuer","tuer",0,"y","y","y/y","y/i","u/i","same","y/y"
"33qh","html-keyboard-response",126,559510,"0.0-10.0-1.56",NA,NA,NA,NA,NA,784,"q","segel1500segel","Englisch","10",NA,NA,NA,"uni",NA,"immersion","durch Immersion","10","4 Jahre","segel","segel",0,"e_long","e_long","e_long/e_long","i/e","0","same","e/e"
"33qh","html-keyboard-response",128,563910,"0.0-10.0-1.57",NA,NA,NA,NA,NA,540,"p","spulen1500spuelen","Englisch","10",NA,NA,NA,"uni",NA,"immersion","durch Immersion","10","4 Jahre","spulen","spuelen",1,"u","y","u/y","u/y","0","different","u/y"
"33qh","html-keyboard-response",130,568134,"0.0-10.0-1.58",NA,NA,NA,NA,NA,399,"p","stuhl1500stiel","Englisch","10",NA,NA,NA,"uni",NA,"immersion","durch Immersion","10","4 Jahre","stuhl","stiel",1,"u","i_long","u/i_long","u/i","0","different","u/i"
"33qh","html-keyboard-response",132,572087,"0.0-10.0-1.59",NA,NA,NA,NA,NA,55,"q","segel1500siegel","Englisch","10",NA,NA,NA,"uni",NA,"immersion","durch Immersion","10","4 Jahre","segel","siegel",1,"e_long","i_long","e_long/i_long","i/e","0","different","e/i"
"33qh","html-keyboard-response",134,576007,"0.0-10.0-1.60",NA,NA,NA,NA,NA,655,"p","tier1500tour","Englisch","10",NA,NA,NA,"uni",NA,"immersion","durch Immersion","10","4 Jahre","tier","tour",1,"i_long","u","u/i_long","u/i","0","different","u/i"
"33qh","html-keyboard-response",136,579991,"0.0-10.0-1.61",NA,NA,NA,NA,NA,436,"q","leder1500leder","Englisch","10",NA,NA,NA,"uni",NA,"immersion","durch Immersion","10","4 Jahre","leder","leder",0,"e_long","e_long","e_long/e_long","i/e","0","same","e/e"
"33qh","html-keyboard-response",138,583719,"0.0-10.0-1.62",NA,NA,NA,NA,NA,379,"q","tour1500tour","Englisch","10",NA,NA,NA,"uni",NA,"immersion","durch Immersion","10","4 Jahre","tour","tour",0,"u","u","u/u","u/i","u/y","same","u/u"
"33qh","html-keyboard-response",140,587303,"0.0-10.0-1.63",NA,NA,NA,NA,NA,341,"q","tour1500tour","Englisch","10",NA,NA,NA,"uni",NA,"immersion","durch Immersion","10","4 Jahre","tour","tour",0,"u","u","u/u","u/i","u/y","same","u/u"
"33qh","html-keyboard-response",142,592519,"0.0-10.0-1.64",NA,NA,NA,NA,NA,1075,"p","spielen1500spuelen","Englisch","10",NA,NA,NA,"uni",NA,"immersion","durch Immersion","10","4 Jahre","spielen","spuelen",1,"i_long","y","y/i_long","y/i","0","different","i/y"
"33qh","html-keyboard-response",144,600568,"0.0-10.0-1.65",NA,NA,NA,NA,NA,4015,"p","siegel1500siegel","Englisch","10",NA,NA,NA,"uni",NA,"immersion","durch Immersion","10","4 Jahre","siegel","siegel",0,"i_long","i_long","i_long/i_long","i/e","0","same","i/i"
"33qh","html-keyboard-response",146,604103,"0.0-10.0-1.66",NA,NA,NA,NA,NA,283,"p","tour1500tuer","Englisch","10",NA,NA,NA,"uni",NA,"immersion","durch Immersion","10","4 Jahre","tour","tuer",1,"u","y","u/y","u/y","0","different","u/y"
"33qh","html-keyboard-response",148,608632,"0.0-10.0-1.67",NA,NA,NA,NA,NA,515,"p","spielen1500spuelen","Englisch","10",NA,NA,NA,"uni",NA,"immersion","durch Immersion","10","4 Jahre","spielen","spuelen",1,"i_long","y","y/i_long","y/i","0","different","i/y"
"33qh","html-keyboard-response",150,612904,"0.0-10.0-1.68",NA,NA,NA,NA,NA,376,"q","siegel1500siegel","Englisch","10",NA,NA,NA,"uni",NA,"immersion","durch Immersion","10","4 Jahre","siegel","siegel",0,"i_long","i_long","i_long/i_long","i/e","0","same","i/i"
"33qh","html-keyboard-response",152,616840,"0.0-10.0-1.69",NA,NA,NA,NA,NA,480,"q","bluten1500bluten","Englisch","10",NA,NA,NA,"uni",NA,"immersion","durch Immersion","10","4 Jahre","bluten","bluten",0,"u","u","u/u","u/y","0","same","u/u"
"33qh","html-keyboard-response",154,620792,"0.0-10.0-1.70",NA,NA,NA,NA,NA,136,"q","stuhl1500stuhl","Englisch","10",NA,NA,NA,"uni",NA,"immersion","durch Immersion","10","4 Jahre","stuhl","stuhl",0,"u","u","u/u","u/i","0","same","u/u"
"33qh","html-keyboard-response",156,624952,"0.0-10.0-1.71",NA,NA,NA,NA,NA,349,"q","stiel1500stiel","Englisch","10",NA,NA,NA,"uni",NA,"immersion","durch Immersion","10","4 Jahre","stiel","stiel",0,"i_long","i_long","i_long/i_long","u/i","0","same","i/i"
"33qh","html-keyboard-response",158,628584,"0.0-10.0-1.72",NA,NA,NA,NA,NA,266,"p","buehne1500biene","Englisch","10",NA,NA,NA,"uni",NA,"immersion","durch Immersion","10","4 Jahre","buehne","biene",1,"y","i_long","y/i_long","y/i","0","different","i/y"
"33qh","html-keyboard-response",160,632872,"0.0-10.0-1.73",NA,NA,NA,NA,NA,235,"p","spielen1500spulen","Englisch","10",NA,NA,NA,"uni",NA,"immersion","durch Immersion","10","4 Jahre","spielen","spulen",1,"i_long","u","u/i_long","u/i","0","different","u/i"
"33qh","html-keyboard-response",162,636745,"0.0-10.0-1.74",NA,NA,NA,NA,NA,392,"p","kiel1500kuehl","Englisch","10",NA,NA,NA,"uni",NA,"immersion","durch Immersion","10","4 Jahre","kiel","kuehl",1,"i_long","y","y/i_long","y/i","0","different","i/y"
"33qh","html-keyboard-response",164,640921,"0.0-10.0-1.75",NA,NA,NA,NA,NA,365,"p","stiel1500stuhl","Englisch","10",NA,NA,NA,"uni",NA,"immersion","durch Immersion","10","4 Jahre","stiel","stuhl",1,"i_long","u","u/i_long","u/i","0","different","u/i"
"33qh","html-keyboard-response",166,644889,"0.0-10.0-1.76",NA,NA,NA,NA,NA,432,"p","leder1500lieder","Englisch","10",NA,NA,NA,"uni",NA,"immersion","durch Immersion","10","4 Jahre","leder","lieder",1,"e_long","i_long","e_long/i_long","i/e","0","different","e/i"
"33qh","html-keyboard-response",168,648665,"0.0-10.0-1.77",NA,NA,NA,NA,NA,330,"q","blueten1500blueten","Englisch","10",NA,NA,NA,"uni",NA,"immersion","durch Immersion","10","4 Jahre","blueten","blueten",0,"y","y","y/y","u/y","0","same","y/y"
"33qh","html-keyboard-response",170,652297,"0.0-10.0-1.78",NA,NA,NA,NA,NA,247,"q","buehne1500buehne","Englisch","10",NA,NA,NA,"uni",NA,"immersion","durch Immersion","10","4 Jahre","buehne","buehne",0,"y","y","y/y","y/i","0","same","y/y"
"33qh","html-keyboard-response",172,656025,"0.0-10.0-1.79",NA,NA,NA,NA,NA,469,"p","tour1500tier","Englisch","10",NA,NA,NA,"uni",NA,"immersion","durch Immersion","10","4 Jahre","tour","tier",1,"u","i_long","u/i_long","u/i","0","different","u/i"
"4d9c","html-keyboard-response",14,158547,"0.0-10.0-1.0",NA,NA,NA,NA,NA,459,"p","tier1500tour","Englisch","13","classeshome",NA,NA,NA,NA,"immersion","","20","9 Monate","tier","tour",1,"i_long","u","u/i_long","u/i","0","different","u/i"
"4d9c","html-keyboard-response",16,162646,"0.0-10.0-1.1",NA,NA,NA,NA,NA,178,"q","buehne1500buehne","Englisch","13","classeshome",NA,NA,NA,NA,"immersion","","20","9 Monate","buehne","buehne",0,"y","y","y/y","y/i","0","same","y/y"
"4d9c","html-keyboard-response",18,166884,"0.0-10.0-1.2",NA,NA,NA,NA,NA,416,"p","bluten1500blueten","Englisch","13","classeshome",NA,NA,NA,NA,"immersion","","20","9 Monate","bluten","blueten",1,"u","y","u/y","u/y","0","different","u/y"
"4d9c","html-keyboard-response",20,172108,"0.0-10.0-1.3",NA,NA,NA,NA,NA,899,"p","spielen1500spulen","Englisch","13","classeshome",NA,NA,NA,NA,"immersion","","20","9 Monate","spielen","spulen",1,"i_long","u","u/i_long","u/i","0","different","u/i"
"4d9c","html-keyboard-response",22,176145,"0.0-10.0-1.4",NA,NA,NA,NA,NA,237,"p","leder1500lieder","Englisch","13","classeshome",NA,NA,NA,NA,"immersion","","20","9 Monate","leder","lieder",1,"e_long","i_long","e_long/i_long","i/e","0","different","e/i"
"4d9c","html-keyboard-response",24,179804,"0.0-10.0-1.5",NA,NA,NA,NA,NA,177,"p","tour1500tier","Englisch","13","classeshome",NA,NA,NA,NA,"immersion","","20","9 Monate","tour","tier",1,"u","i_long","u/i_long","u/i","0","different","u/i"
"4d9c","html-keyboard-response",26,184193,"0.0-10.0-1.6",NA,NA,NA,NA,NA,745,"p","blueten1500bluten","Englisch","13","classeshome",NA,NA,NA,NA,"immersion","","20","9 Monate","blueten","bluten",1,"y","u","u/y","u/y","0","different","u/y"
"4d9c","html-keyboard-response",28,188584,"0.0-10.0-1.7",NA,NA,NA,NA,NA,137,"p","siegel1500segel","Englisch","13","classeshome",NA,NA,NA,NA,"immersion","","20","9 Monate","siegel","segel",1,"i_long","e_long","e_long/i_long","i/e","0","different","e/i"
"4d9c","html-keyboard-response",30,193395,"0.0-10.0-1.8",NA,NA,NA,NA,NA,408,"p","spielen1500spuelen","Englisch","13","classeshome",NA,NA,NA,NA,"immersion","","20","9 Monate","spielen","spuelen",1,"i_long","y","y/i_long","y/i","0","different","i/y"
"4d9c","html-keyboard-response",32,197568,"0.0-10.0-1.9",NA,NA,NA,NA,NA,421,"p","buehne1500biene","Englisch","13","classeshome",NA,NA,NA,NA,"immersion","","20","9 Monate","buehne","biene",1,"y","i_long","y/i_long","y/i","0","different","i/y"
"4d9c","html-keyboard-response",34,201101,"0.0-10.0-1.10",NA,NA,NA,NA,NA,174,"p","buehne1500biene","Englisch","13","classeshome",NA,NA,NA,NA,"immersion","","20","9 Monate","buehne","biene",1,"y","i_long","y/i_long","y/i","0","different","i/y"
"4d9c","html-keyboard-response",36,207173,"0.0-10.0-1.11",NA,NA,NA,NA,NA,245,"q","spielen1500spielen","Englisch","13","classeshome",NA,NA,NA,NA,"immersion","","20","9 Monate","spielen","spielen",0,"i_long","i_long","i_long/i_long","u/i","y/i","same","i/i"
"4d9c","html-keyboard-response",38,211640,"0.0-10.0-1.12",NA,NA,NA,NA,NA,532,"p","kiel1500kuehl","Englisch","13","classeshome",NA,NA,NA,NA,"immersion","","20","9 Monate","kiel","kuehl",1,"i_long","y","y/i_long","y/i","0","different","i/y"
"4d9c","html-keyboard-response",40,215830,"0.0-10.0-1.13",NA,NA,NA,NA,NA,302,"q","bluten1500bluten","Englisch","13","classeshome",NA,NA,NA,NA,"immersion","","20","9 Monate","bluten","bluten",0,"u","u","u/u","u/y","0","same","u/u"
"4d9c","html-keyboard-response",42,221532,"0.0-10.0-1.14",NA,NA,NA,NA,NA,1144,"p","spulen1500spielen","Englisch","13","classeshome",NA,NA,NA,NA,"immersion","","20","9 Monate","spulen","spielen",1,"u","i_long","u/i_long","u/i","0","different","u/i"
"4d9c","html-keyboard-response",44,226100,"0.0-10.0-1.15",NA,NA,NA,NA,NA,192,"q","segel1500segel","Englisch","13","classeshome",NA,NA,NA,NA,"immersion","","20","9 Monate","segel","segel",0,"e_long","e_long","e_long/e_long","i/e","0","same","e/e"
"4d9c","html-keyboard-response",46,230848,"0.0-10.0-1.16",NA,NA,NA,NA,NA,361,"p","spuelen1500spulen","Englisch","13","classeshome",NA,NA,NA,NA,"immersion","","20","9 Monate","spuelen","spulen",1,"y","u","u/y","u/y","0","different","u/y"
"4d9c","html-keyboard-response",48,235245,"0.0-10.0-1.17",NA,NA,NA,NA,NA,37,"p","stiel1500stuhl","Englisch","13","classeshome",NA,NA,NA,NA,"immersion","","20","9 Monate","stiel","stuhl",1,"i_long","u","u/i_long","u/i","0","different","u/i"
"4d9c","html-keyboard-response",50,239490,"0.0-10.0-1.18",NA,NA,NA,NA,NA,83,"q","leder1500leder","Englisch","13","classeshome",NA,NA,NA,NA,"immersion","","20","9 Monate","leder","leder",0,"e_long","e_long","e_long/e_long","i/e","0","same","e/e"
"4d9c","html-keyboard-response",52,243976,"0.0-10.0-1.19",NA,NA,NA,NA,NA,208,"q","stiel1500stiel","Englisch","13","classeshome",NA,NA,NA,NA,"immersion","","20","9 Monate","stiel","stiel",0,"i_long","i_long","i_long/i_long","u/i","0","same","i/i"
"4d9c","html-keyboard-response",54,247728,"0.0-10.0-1.20",NA,NA,NA,NA,NA,220,"q","leder1500leder","Englisch","13","classeshome",NA,NA,NA,NA,"immersion","","20","9 Monate","leder","leder",0,"e_long","e_long","e_long/e_long","i/e","0","same","e/e"
"4d9c","html-keyboard-response",56,251696,"0.0-10.0-1.21",NA,NA,NA,NA,NA,68,"q","segel1500segel","Englisch","13","classeshome",NA,NA,NA,NA,"immersion","","20","9 Monate","segel","segel",0,"e_long","e_long","e_long/e_long","i/e","0","same","e/e"
"4d9c","html-keyboard-response",58,256175,"0.0-10.0-1.22",NA,NA,NA,NA,NA,687,"p","tour1500tuer","Englisch","13","classeshome",NA,NA,NA,NA,"immersion","","20","9 Monate","tour","tuer",1,"u","y","u/y","u/y","0","different","u/y"
"4d9c","html-keyboard-response",60,260771,"0.0-10.0-1.23",NA,NA,NA,NA,NA,762,"q","kuehl1500kuehl","Englisch","13","classeshome",NA,NA,NA,NA,"immersion","","20","9 Monate","kuehl","kuehl",0,"y","y","y/y","y/i","0","same","y/y"
"4d9c","html-keyboard-response",62,264947,"0.0-10.0-1.24",NA,NA,NA,NA,NA,599,"q","tour1500tour","Englisch","13","classeshome",NA,NA,NA,NA,"immersion","","20","9 Monate","tour","tour",0,"u","u","u/u","u/i","u/y","same","u/u"
"4d9c","html-keyboard-response",64,269169,"0.0-10.0-1.25",NA,NA,NA,NA,NA,200,"p","spielen1500spuelen","Englisch","13","classeshome",NA,NA,NA,NA,"immersion","","20","9 Monate","spielen","spuelen",1,"i_long","y","y/i_long","y/i","0","different","i/y"
"4d9c","html-keyboard-response",66,273378,"0.0-10.0-1.26",NA,NA,NA,NA,NA,449,"p","biene1500buehne","Englisch","13","classeshome",NA,NA,NA,NA,"immersion","","20","9 Monate","biene","buehne",1,"i_long","y","y/i_long","y/i","0","different","i/y"
"4d9c","html-keyboard-response",68,278168,"0.0-10.0-1.27",NA,NA,NA,NA,NA,360,"p","stuhl1500stiel","Englisch","13","classeshome",NA,NA,NA,NA,"immersion","","20","9 Monate","stuhl","stiel",1,"u","i_long","u/i_long","u/i","0","different","u/i"
"4d9c","html-keyboard-response",70,282233,"0.0-10.0-1.28",NA,NA,NA,NA,NA,625,"p","bluten1500blueten","Englisch","13","classeshome",NA,NA,NA,NA,"immersion","","20","9 Monate","bluten","blueten",1,"u","y","u/y","u/y","0","different","u/y"
"4d9c","html-keyboard-response",72,287180,"0.0-10.0-1.29",NA,NA,NA,NA,NA,672,"q","lieder1500lieder","Englisch","13","classeshome",NA,NA,NA,NA,"immersion","","20","9 Monate","lieder","lieder",0,"i_long","i_long","i_long/i_long","i/e","0","same","i/i"
"4d9c","html-keyboard-response",74,290756,"0.0-10.0-1.30",NA,NA,NA,NA,NA,328,"p","tour1500tier","Englisch","13","classeshome",NA,NA,NA,NA,"immersion","","20","9 Monate","tour","tier",1,"u","i_long","u/i_long","u/i","0","different","u/i"
"4d9c","html-keyboard-response",76,295808,"0.0-10.0-1.31",NA,NA,NA,NA,NA,400,"p","lieder1500leder","Englisch","13","classeshome",NA,NA,NA,NA,"immersion","","20","9 Monate","lieder","leder",1,"i_long","e_long","e_long/i_long","i/e","0","different","e/i"
"4d9c","html-keyboard-response",78,304596,"0.0-10.0-1.32",NA,NA,NA,NA,NA,4627,"p","segel1500siegel","Englisch","13","classeshome",NA,NA,NA,NA,"immersion","","20","9 Monate","segel","siegel",1,"e_long","i_long","e_long/i_long","i/e","0","different","e/i"
"4d9c","html-keyboard-response",80,309310,"0.0-10.0-1.33",NA,NA,NA,NA,NA,1001,"q","biene1500biene","Englisch","13","classeshome",NA,NA,NA,NA,"immersion","","20","9 Monate","biene","biene",0,"i_long","i_long","i_long/i_long","y/i","0","same","i/i"
"4d9c","html-keyboard-response",82,313298,"0.0-10.0-1.34",NA,NA,NA,NA,NA,471,"q","tuer1500tuer","Englisch","13","classeshome",NA,NA,NA,NA,"immersion","","20","9 Monate","tuer","tuer",0,"y","y","y/y","y/i","u/i","same","y/y"
"4d9c","html-keyboard-response",84,317509,"0.0-10.0-1.35",NA,NA,NA,NA,NA,161,"p","spielen1500spulen","Englisch","13","classeshome",NA,NA,NA,NA,"immersion","","20","9 Monate","spielen","spulen",1,"i_long","u","u/i_long","u/i","0","different","u/i"
"4d9c","html-keyboard-response",86,321687,"0.0-10.0-1.36",NA,NA,NA,NA,NA,358,"q","stiel1500stiel","Englisch","13","classeshome",NA,NA,NA,NA,"immersion","","20","9 Monate","stiel","stiel",0,"i_long","i_long","i_long/i_long","u/i","0","same","i/i"
"4d9c","html-keyboard-response",88,325859,"0.0-10.0-1.37",NA,NA,NA,NA,NA,371,"q","blueten1500blueten","Englisch","13","classeshome",NA,NA,NA,NA,"immersion","","20","9 Monate","blueten","blueten",0,"y","y","y/y","u/y","0","same","y/y"
"4d9c","html-keyboard-response",90,330264,"0.0-10.0-1.38",NA,NA,NA,NA,NA,96,"q","spulen1500spulen","Englisch","13","classeshome",NA,NA,NA,NA,"immersion","","20","9 Monate","spulen","spulen",0,"u","u","u/u","u/i","u/y","same","u/u"
"4d9c","html-keyboard-response",92,334339,"0.0-10.0-1.39",NA,NA,NA,NA,NA,512,"p","leder1500lieder","Englisch","13","classeshome",NA,NA,NA,NA,"immersion","","20","9 Monate","leder","lieder",1,"e_long","i_long","e_long/i_long","i/e","0","different","e/i"
"4d9c","html-keyboard-response",94,338499,"0.0-10.0-1.40",NA,NA,NA,NA,NA,351,"p","stiel1500stuhl","Englisch","13","classeshome",NA,NA,NA,NA,"immersion","","20","9 Monate","stiel","stuhl",1,"i_long","u","u/i_long","u/i","0","different","u/i"
"4d9c","html-keyboard-response",96,343313,"0.0-10.0-1.41",NA,NA,NA,NA,NA,485,"q","stuhl1500stuhl","Englisch","13","classeshome",NA,NA,NA,NA,"immersion","","20","9 Monate","stuhl","stuhl",0,"u","u","u/u","u/i","0","same","u/u"
"4d9c","html-keyboard-response",98,347306,"0.0-10.0-1.42",NA,NA,NA,NA,NA,617,"p","biene1500buehne","Englisch","13","classeshome",NA,NA,NA,NA,"immersion","","20","9 Monate","biene","buehne",1,"i_long","y","y/i_long","y/i","0","different","i/y"
"4d9c","html-keyboard-response",100,351277,"0.0-10.0-1.43",NA,NA,NA,NA,NA,588,"q","buehne1500buehne","Englisch","13","classeshome",NA,NA,NA,NA,"immersion","","20","9 Monate","buehne","buehne",0,"y","y","y/y","y/i","0","same","y/y"
"4d9c","html-keyboard-response",102,357133,"0.0-10.0-1.44",NA,NA,NA,NA,NA,183,"q","spuelen1500spuelen","Englisch","13","classeshome",NA,NA,NA,NA,"immersion","","20","9 Monate","spuelen","spuelen",0,"y","y","y/y","y/i","u/y","same","y/y"
"4d9c","html-keyboard-response",104,360832,"0.0-10.0-1.45",NA,NA,NA,NA,NA,143,"p","lieder1500leder","Englisch","13","classeshome",NA,NA,NA,NA,"immersion","","20","9 Monate","lieder","leder",1,"i_long","e_long","e_long/i_long","i/e","0","different","e/i"
"4d9c","html-keyboard-response",106,364564,"0.0-10.0-1.46",NA,NA,NA,NA,NA,196,"p","tuer1500tour","Englisch","13","classeshome",NA,NA,NA,NA,"immersion","","20","9 Monate","tuer","tour",1,"y","u","u/y","u/y","0","different","u/y"
"4d9c","html-keyboard-response",108,369352,"0.0-10.0-1.47",NA,NA,NA,NA,NA,763,"q","spielen1500spielen","Englisch","13","classeshome",NA,NA,NA,NA,"immersion","","20","9 Monate","spielen","spielen",0,"i_long","i_long","i_long/i_long","u/i","y/i","same","i/i"
"4d9c","html-keyboard-response",110,372951,"0.0-10.0-1.48",NA,NA,NA,NA,NA,363,"p","tuer1500tour","Englisch","13","classeshome",NA,NA,NA,NA,"immersion","","20","9 Monate","tuer","tour",1,"y","u","u/y","u/y","0","different","u/y"
"4d9c","html-keyboard-response",112,377180,"0.0-10.0-1.49",NA,NA,NA,NA,NA,291,"q","kiel1500kiel","Englisch","13","classeshome",NA,NA,NA,NA,"immersion","","20","9 Monate","kiel","kiel",0,"i_long","i_long","i_long/i_long","y/i","0","same","i/i"
"4d9c","html-keyboard-response",114,382135,"0.0-10.0-1.50",NA,NA,NA,NA,NA,746,"q","siegel1500siegel","Englisch","13","classeshome",NA,NA,NA,NA,"immersion","","20","9 Monate","siegel","siegel",0,"i_long","i_long","i_long/i_long","i/e","0","same","i/i"
"4d9c","html-keyboard-response",116,386070,"0.0-10.0-1.51",NA,NA,NA,NA,NA,422,"q","kuehl1500kuehl","Englisch","13","classeshome",NA,NA,NA,NA,"immersion","","20","9 Monate","kuehl","kuehl",0,"y","y","y/y","y/i","0","same","y/y"
"4d9c","html-keyboard-response",118,390776,"0.0-10.0-1.52",NA,NA,NA,NA,NA,467,"p","spulen1500spuelen","Englisch","13","classeshome",NA,NA,NA,NA,"immersion","","20","9 Monate","spulen","spuelen",1,"u","y","u/y","u/y","0","different","u/y"
"4d9c","html-keyboard-response",120,394409,"0.0-10.0-1.53",NA,NA,NA,NA,NA,380,"p","tour1500tuer","Englisch","13","classeshome",NA,NA,NA,NA,"immersion","","20","9 Monate","tour","tuer",1,"u","y","u/y","u/y","0","different","u/y"
"4d9c","html-keyboard-response",122,398125,"0.0-10.0-1.54",NA,NA,NA,NA,NA,216,"q","kiel1500kiel","Englisch","13","classeshome",NA,NA,NA,NA,"immersion","","20","9 Monate","kiel","kiel",0,"i_long","i_long","i_long/i_long","y/i","0","same","i/i"
"4d9c","html-keyboard-response",124,401807,"0.0-10.0-1.55",NA,NA,NA,NA,NA,318,"q","biene1500biene","Englisch","13","classeshome",NA,NA,NA,NA,"immersion","","20","9 Monate","biene","biene",0,"i_long","i_long","i_long/i_long","y/i","0","same","i/i"
"4d9c","html-keyboard-response",126,405511,"0.0-10.0-1.56",NA,NA,NA,NA,NA,442,"p","tier1500tour","Englisch","13","classeshome",NA,NA,NA,NA,"immersion","","20","9 Monate","tier","tour",1,"i_long","u","u/i_long","u/i","0","different","u/i"
"4d9c","html-keyboard-response",128,409480,"0.0-10.0-1.57",NA,NA,NA,NA,NA,152,"q","stuhl1500stuhl","Englisch","13","classeshome",NA,NA,NA,NA,"immersion","","20","9 Monate","stuhl","stuhl",0,"u","u","u/u","u/i","0","same","u/u"
"4d9c","html-keyboard-response",130,413546,"0.0-10.0-1.58",NA,NA,NA,NA,NA,196,"p","spuelen1500spulen","Englisch","13","classeshome",NA,NA,NA,NA,"immersion","","20","9 Monate","spuelen","spulen",1,"y","u","u/y","u/y","0","different","u/y"
"4d9c","html-keyboard-response",132,418082,"0.0-10.0-1.59",NA,NA,NA,NA,NA,213,"p","spuelen1500spielen","Englisch","13","classeshome",NA,NA,NA,NA,"immersion","","20","9 Monate","spuelen","spielen",1,"y","i_long","y/i_long","y/i","0","different","i/y"
"4d9c","html-keyboard-response",134,422226,"0.0-10.0-1.60",NA,NA,NA,NA,NA,137,"q","spuelen1500spuelen","Englisch","13","classeshome",NA,NA,NA,NA,"immersion","","20","9 Monate","spuelen","spuelen",0,"y","y","y/y","y/i","u/y","same","y/y"
"4d9c","html-keyboard-response",136,426530,"0.0-10.0-1.61",NA,NA,NA,NA,NA,261,"q","spulen1500spulen","Englisch","13","classeshome",NA,NA,NA,NA,"immersion","","20","9 Monate","spulen","spulen",0,"u","u","u/u","u/i","u/y","same","u/u"
"4d9c","html-keyboard-response",138,430570,"0.0-10.0-1.62",NA,NA,NA,NA,NA,142,"p","siegel1500segel","Englisch","13","classeshome",NA,NA,NA,NA,"immersion","","20","9 Monate","siegel","segel",1,"i_long","e_long","e_long/i_long","i/e","0","different","e/i"
"4d9c","html-keyboard-response",140,435246,"0.0-10.0-1.63",NA,NA,NA,NA,NA,777,"p","kuehl1500kiel","Englisch","13","classeshome",NA,NA,NA,NA,"immersion","","20","9 Monate","kuehl","kiel",1,"y","i_long","y/i_long","y/i","0","different","i/y"
"4d9c","html-keyboard-response",142,438701,"0.0-10.0-1.64",NA,NA,NA,NA,NA,191,"q","tuer1500tuer","Englisch","13","classeshome",NA,NA,NA,NA,"immersion","","20","9 Monate","tuer","tuer",0,"y","y","y/y","y/i","u/i","same","y/y"
"4d9c","html-keyboard-response",144,442559,"0.0-10.0-1.65",NA,NA,NA,NA,NA,409,"p","bluten1500bluten","Englisch","13","classeshome",NA,NA,NA,NA,"immersion","","20","9 Monate","bluten","bluten",0,"u","u","u/u","u/y","0","same","u/u"
"4d9c","html-keyboard-response",146,446789,"0.0-10.0-1.66",NA,NA,NA,NA,NA,180,"p","spulen1500spielen","Englisch","13","classeshome",NA,NA,NA,NA,"immersion","","20","9 Monate","spulen","spielen",1,"u","i_long","u/i_long","u/i","0","different","u/i"
"4d9c","html-keyboard-response",148,450973,"0.0-10.0-1.67",NA,NA,NA,NA,NA,524,"q","tier1500tier","Englisch","13","classeshome",NA,NA,NA,NA,"immersion","","20","9 Monate","tier","tier",0,"i_long","i_long","i_long/i_long","y/i","u/i","same","i/i"
"4d9c","html-keyboard-response",150,454565,"0.0-10.0-1.68",NA,NA,NA,NA,NA,135,"p","blueten1500bluten","Englisch","13","classeshome",NA,NA,NA,NA,"immersion","","20","9 Monate","blueten","bluten",1,"y","u","u/y","u/y","0","different","u/y"
"4d9c","html-keyboard-response",152,458758,"0.0-10.0-1.69",NA,NA,NA,NA,NA,188,"p","spuelen1500spielen","Englisch","13","classeshome",NA,NA,NA,NA,"immersion","","20","9 Monate","spuelen","spielen",1,"y","i_long","y/i_long","y/i","0","different","i/y"
"4d9c","html-keyboard-response",154,462787,"0.0-10.0-1.70",NA,NA,NA,NA,NA,478,"q","lieder1500lieder","Englisch","13","classeshome",NA,NA,NA,NA,"immersion","","20","9 Monate","lieder","lieder",0,"i_long","i_long","i_long/i_long","i/e","0","same","i/i"
"4d9c","html-keyboard-response",156,466861,"0.0-10.0-1.71",NA,NA,NA,NA,NA,252,"p","stuhl1500stiel","Englisch","13","classeshome",NA,NA,NA,NA,"immersion","","20","9 Monate","stuhl","stiel",1,"u","i_long","u/i_long","u/i","0","different","u/i"
"4d9c","html-keyboard-response",158,470597,"0.0-10.0-1.72",NA,NA,NA,NA,NA,208,"p","kiel1500kuehl","Englisch","13","classeshome",NA,NA,NA,NA,"immersion","","20","9 Monate","kiel","kuehl",1,"i_long","y","y/i_long","y/i","0","different","i/y"
"4d9c","html-keyboard-response",160,474271,"0.0-10.0-1.73",NA,NA,NA,NA,NA,162,"p","kuehl1500kiel","Englisch","13","classeshome",NA,NA,NA,NA,"immersion","","20","9 Monate","kuehl","kiel",1,"y","i_long","y/i_long","y/i","0","different","i/y"
"4d9c","html-keyboard-response",162,477900,"0.0-10.0-1.74",NA,NA,NA,NA,NA,371,"q","tour1500tour","Englisch","13","classeshome",NA,NA,NA,NA,"immersion","","20","9 Monate","tour","tour",0,"u","u","u/u","u/i","u/y","same","u/u"
"4d9c","html-keyboard-response",164,481490,"0.0-10.0-1.75",NA,NA,NA,NA,NA,340,"q","tier1500tier","Englisch","13","classeshome",NA,NA,NA,NA,"immersion","","20","9 Monate","tier","tier",0,"i_long","i_long","i_long/i_long","y/i","u/i","same","i/i"
"4d9c","html-keyboard-response",166,485595,"0.0-10.0-1.76",NA,NA,NA,NA,NA,246,"p","spulen1500spuelen","Englisch","13","classeshome",NA,NA,NA,NA,"immersion","","20","9 Monate","spulen","spuelen",1,"u","y","u/y","u/y","0","different","u/y"
"4d9c","html-keyboard-response",168,489622,"0.0-10.0-1.77",NA,NA,NA,NA,NA,133,"q","siegel1500siegel","Englisch","13","classeshome",NA,NA,NA,NA,"immersion","","20","9 Monate","siegel","siegel",0,"i_long","i_long","i_long/i_long","i/e","0","same","i/i"
"4d9c","html-keyboard-response",170,493688,"0.0-10.0-1.78",NA,NA,NA,NA,NA,179,"p","segel1500siegel","Englisch","13","classeshome",NA,NA,NA,NA,"immersion","","20","9 Monate","segel","siegel",1,"e_long","i_long","e_long/i_long","i/e","0","different","e/i"
"4d9c","html-keyboard-response",172,497187,"0.0-10.0-1.79",NA,NA,NA,NA,NA,38,"q","blueten1500blueten","Englisch","13","classeshome",NA,NA,NA,NA,"immersion","","20","9 Monate","blueten","blueten",0,"y","y","y/y","u/y","0","same","y/y"
"71wt","html-keyboard-response",15,159684,"0.0-10.0-1.0",NA,NA,NA,NA,NA,757,"p","blueten1500bluten","Englisch","11","classeshome","selflearn",NA,"uni",NA,"immersion","In ein deutschsprachiges Land wohnen","20","14 Monaten","blueten","bluten",1,"y","u","u/y","u/y","0","different","u/y"
"71wt","html-keyboard-response",17,164484,"0.0-10.0-1.1",NA,NA,NA,NA,NA,384,"q","segel1500segel","Englisch","11","classeshome","selflearn",NA,"uni",NA,"immersion","In ein deutschsprachiges Land wohnen","20","14 Monaten","segel","segel",0,"e_long","e_long","e_long/e_long","i/e","0","same","e/e"
"71wt","html-keyboard-response",19,168745,"0.0-10.0-1.2",NA,NA,NA,NA,NA,569,"p","lieder1500leder","Englisch","11","classeshome","selflearn",NA,"uni",NA,"immersion","In ein deutschsprachiges Land wohnen","20","14 Monaten","lieder","leder",1,"i_long","e_long","e_long/i_long","i/e","0","different","e/i"
"71wt","html-keyboard-response",21,173012,"0.0-10.0-1.3",NA,NA,NA,NA,NA,157,"p","spielen1500spuelen","Englisch","11","classeshome","selflearn",NA,"uni",NA,"immersion","In ein deutschsprachiges Land wohnen","20","14 Monaten","spielen","spuelen",1,"i_long","y","y/i_long","y/i","0","different","i/y"
"71wt","html-keyboard-response",23,177437,"0.0-10.0-1.4",NA,NA,NA,NA,NA,466,"q","stiel1500stiel","Englisch","11","classeshome","selflearn",NA,"uni",NA,"immersion","In ein deutschsprachiges Land wohnen","20","14 Monaten","stiel","stiel",0,"i_long","i_long","i_long/i_long","u/i","0","same","i/i"
"71wt","html-keyboard-response",25,181730,"0.0-10.0-1.5",NA,NA,NA,NA,NA,286,"p","siegel1500segel","Englisch","11","classeshome","selflearn",NA,"uni",NA,"immersion","In ein deutschsprachiges Land wohnen","20","14 Monaten","siegel","segel",1,"i_long","e_long","e_long/i_long","i/e","0","different","e/i"
"71wt","html-keyboard-response",27,187636,"0.0-10.0-1.6",NA,NA,NA,NA,NA,1907,"p","spuelen1500spulen","Englisch","11","classeshome","selflearn",NA,"uni",NA,"immersion","In ein deutschsprachiges Land wohnen","20","14 Monaten","spuelen","spulen",1,"y","u","u/y","u/y","0","different","u/y"
"71wt","html-keyboard-response",29,191989,"0.0-10.0-1.7",NA,NA,NA,NA,NA,143,"q","spulen1500spulen","Englisch","11","classeshome","selflearn",NA,"uni",NA,"immersion","In ein deutschsprachiges Land wohnen","20","14 Monaten","spulen","spulen",0,"u","u","u/u","u/i","u/y","same","u/u"
"71wt","html-keyboard-response",31,196212,"0.0-10.0-1.8",NA,NA,NA,NA,NA,287,"q","stuhl1500stuhl","Englisch","11","classeshome","selflearn",NA,"uni",NA,"immersion","In ein deutschsprachiges Land wohnen","20","14 Monaten","stuhl","stuhl",0,"u","u","u/u","u/i","0","same","u/u"
"71wt","html-keyboard-response",33,200322,"0.0-10.0-1.9",NA,NA,NA,NA,NA,211,"p","stuhl1500stiel","Englisch","11","classeshome","selflearn",NA,"uni",NA,"immersion","In ein deutschsprachiges Land wohnen","20","14 Monaten","stuhl","stiel",1,"u","i_long","u/i_long","u/i","0","different","u/i"
"71wt","html-keyboard-response",35,204207,"0.0-10.0-1.10",NA,NA,NA,NA,NA,255,"p","kiel1500kuehl","Englisch","11","classeshome","selflearn",NA,"uni",NA,"immersion","In ein deutschsprachiges Land wohnen","20","14 Monaten","kiel","kuehl",1,"i_long","y","y/i_long","y/i","0","different","i/y"
"71wt","html-keyboard-response",37,208117,"0.0-10.0-1.11",NA,NA,NA,NA,NA,528,"q","tuer1500tuer","Englisch","11","classeshome","selflearn",NA,"uni",NA,"immersion","In ein deutschsprachiges Land wohnen","20","14 Monaten","tuer","tuer",0,"y","y","y/y","y/i","u/i","same","y/y"
"71wt","html-keyboard-response",39,212441,"0.0-10.0-1.12",NA,NA,NA,NA,NA,310,"q","siegel1500siegel","Englisch","11","classeshome","selflearn",NA,"uni",NA,"immersion","In ein deutschsprachiges Land wohnen","20","14 Monaten","siegel","siegel",0,"i_long","i_long","i_long/i_long","i/e","0","same","i/i"
"71wt","html-keyboard-response",41,216146,"0.0-10.0-1.13",NA,NA,NA,NA,NA,344,"p","tour1500tier","Englisch","11","classeshome","selflearn",NA,"uni",NA,"immersion","In ein deutschsprachiges Land wohnen","20","14 Monaten","tour","tier",1,"u","i_long","u/i_long","u/i","0","different","u/i"
"71wt","html-keyboard-response",43,220246,"0.0-10.0-1.14",NA,NA,NA,NA,NA,219,"q","segel1500segel","Englisch","11","classeshome","selflearn",NA,"uni",NA,"immersion","In ein deutschsprachiges Land wohnen","20","14 Monaten","segel","segel",0,"e_long","e_long","e_long/e_long","i/e","0","same","e/e"
"71wt","html-keyboard-response",45,223974,"0.0-10.0-1.15",NA,NA,NA,NA,NA,215,"p","buehne1500biene","Englisch","11","classeshome","selflearn",NA,"uni",NA,"immersion","In ein deutschsprachiges Land wohnen","20","14 Monaten","buehne","biene",1,"y","i_long","y/i_long","y/i","0","different","i/y"
"71wt","html-keyboard-response",47,227714,"0.0-10.0-1.16",NA,NA,NA,NA,NA,379,"q","tour1500tour","Englisch","11","classeshome","selflearn",NA,"uni",NA,"immersion","In ein deutschsprachiges Land wohnen","20","14 Monaten","tour","tour",0,"u","u","u/u","u/i","u/y","same","u/u"
"71wt","html-keyboard-response",49,231404,"0.0-10.0-1.17",NA,NA,NA,NA,NA,162,"p","biene1500buehne","Englisch","11","classeshome","selflearn",NA,"uni",NA,"immersion","In ein deutschsprachiges Land wohnen","20","14 Monaten","biene","buehne",1,"i_long","y","y/i_long","y/i","0","different","i/y"
"71wt","html-keyboard-response",51,235232,"0.0-10.0-1.18",NA,NA,NA,NA,NA,188,"p","kuehl1500kiel","Englisch","11","classeshome","selflearn",NA,"uni",NA,"immersion","In ein deutschsprachiges Land wohnen","20","14 Monaten","kuehl","kiel",1,"y","i_long","y/i_long","y/i","0","different","i/y"
"71wt","html-keyboard-response",53,239276,"0.0-10.0-1.19",NA,NA,NA,NA,NA,205,"p","spuelen1500spulen","Englisch","11","classeshome","selflearn",NA,"uni",NA,"immersion","In ein deutschsprachiges Land wohnen","20","14 Monaten","spuelen","spulen",1,"y","u","u/y","u/y","0","different","u/y"
"71wt","html-keyboard-response",55,243553,"0.0-10.0-1.20",NA,NA,NA,NA,NA,265,"p","spulen1500spuelen","Englisch","11","classeshome","selflearn",NA,"uni",NA,"immersion","In ein deutschsprachiges Land wohnen","20","14 Monaten","spulen","spuelen",1,"u","y","u/y","u/y","0","different","u/y"
"71wt","html-keyboard-response",57,247523,"0.0-10.0-1.21",NA,NA,NA,NA,NA,357,"q","leder1500leder","Englisch","11","classeshome","selflearn",NA,"uni",NA,"immersion","In ein deutschsprachiges Land wohnen","20","14 Monaten","leder","leder",0,"e_long","e_long","e_long/e_long","i/e","0","same","e/e"
"71wt","html-keyboard-response",59,251793,"0.0-10.0-1.22",NA,NA,NA,NA,NA,184,"q","spielen1500spielen","Englisch","11","classeshome","selflearn",NA,"uni",NA,"immersion","In ein deutschsprachiges Land wohnen","20","14 Monaten","spielen","spielen",0,"i_long","i_long","i_long/i_long","u/i","y/i","same","i/i"
"71wt","html-keyboard-response",61,255525,"0.0-10.0-1.23",NA,NA,NA,NA,NA,347,"q","tier1500tier","Englisch","11","classeshome","selflearn",NA,"uni",NA,"immersion","In ein deutschsprachiges Land wohnen","20","14 Monaten","tier","tier",0,"i_long","i_long","i_long/i_long","y/i","u/i","same","i/i"
"71wt","html-keyboard-response",63,259334,"0.0-10.0-1.24",NA,NA,NA,NA,NA,278,"q","leder1500leder","Englisch","11","classeshome","selflearn",NA,"uni",NA,"immersion","In ein deutschsprachiges Land wohnen","20","14 Monaten","leder","leder",0,"e_long","e_long","e_long/e_long","i/e","0","same","e/e"
"71wt","html-keyboard-response",65,263606,"0.0-10.0-1.25",NA,NA,NA,NA,NA,141,"p","spuelen1500spielen","Englisch","11","classeshome","selflearn",NA,"uni",NA,"immersion","In ein deutschsprachiges Land wohnen","20","14 Monaten","spuelen","spielen",1,"y","i_long","y/i_long","y/i","0","different","i/y"
"71wt","html-keyboard-response",67,267870,"0.0-10.0-1.26",NA,NA,NA,NA,NA,125,"p","spielen1500spulen","Englisch","11","classeshome","selflearn",NA,"uni",NA,"immersion","In ein deutschsprachiges Land wohnen","20","14 Monaten","spielen","spulen",1,"i_long","u","u/i_long","u/i","0","different","u/i"
"71wt","html-keyboard-response",69,271503,"0.0-10.0-1.27",NA,NA,NA,NA,NA,199,"q","biene1500biene","Englisch","11","classeshome","selflearn",NA,"uni",NA,"immersion","In ein deutschsprachiges Land wohnen","20","14 Monaten","biene","biene",0,"i_long","i_long","i_long/i_long","y/i","0","same","i/i"
"71wt","html-keyboard-response",71,276690,"0.0-10.0-1.28",NA,NA,NA,NA,NA,1148,"p","spielen1500spulen","Englisch","11","classeshome","selflearn",NA,"uni",NA,"immersion","In ein deutschsprachiges Land wohnen","20","14 Monaten","spielen","spulen",1,"i_long","u","u/i_long","u/i","0","different","u/i"
"71wt","html-keyboard-response",73,281993,"0.0-10.0-1.29",NA,NA,NA,NA,NA,1270,"q","segel1500siegel","Englisch","11","classeshome","selflearn",NA,"uni",NA,"immersion","In ein deutschsprachiges Land wohnen","20","14 Monaten","segel","siegel",1,"e_long","i_long","e_long/i_long","i/e","0","different","e/i"
"71wt","html-keyboard-response",75,285754,"0.0-10.0-1.30",NA,NA,NA,NA,NA,333,"p","blueten1500bluten","Englisch","11","classeshome","selflearn",NA,"uni",NA,"immersion","In ein deutschsprachiges Land wohnen","20","14 Monaten","blueten","bluten",1,"y","u","u/y","u/y","0","different","u/y"
"71wt","html-keyboard-response",77,289959,"0.0-10.0-1.31",NA,NA,NA,NA,NA,591,"q","kuehl1500kuehl","Englisch","11","classeshome","selflearn",NA,"uni",NA,"immersion","In ein deutschsprachiges Land wohnen","20","14 Monaten","kuehl","kuehl",0,"y","y","y/y","y/i","0","same","y/y"
"71wt","html-keyboard-response",79,294458,"0.0-10.0-1.32",NA,NA,NA,NA,NA,696,"p","stuhl1500stiel","Englisch","11","classeshome","selflearn",NA,"uni",NA,"immersion","In ein deutschsprachiges Land wohnen","20","14 Monaten","stuhl","stiel",1,"u","i_long","u/i_long","u/i","0","different","u/i"
"71wt","html-keyboard-response",81,298431,"0.0-10.0-1.33",NA,NA,NA,NA,NA,463,"q","buehne1500buehne","Englisch","11","classeshome","selflearn",NA,"uni",NA,"immersion","In ein deutschsprachiges Land wohnen","20","14 Monaten","buehne","buehne",0,"y","y","y/y","y/i","0","same","y/y"
"71wt","html-keyboard-response",83,302191,"0.0-10.0-1.34",NA,NA,NA,NA,NA,311,"q","buehne1500buehne","Englisch","11","classeshome","selflearn",NA,"uni",NA,"immersion","In ein deutschsprachiges Land wohnen","20","14 Monaten","buehne","buehne",0,"y","y","y/y","y/i","0","same","y/y"
"71wt","html-keyboard-response",85,306282,"0.0-10.0-1.35",NA,NA,NA,NA,NA,558,"p","lieder1500leder","Englisch","11","classeshome","selflearn",NA,"uni",NA,"immersion","In ein deutschsprachiges Land wohnen","20","14 Monaten","lieder","leder",1,"i_long","e_long","e_long/i_long","i/e","0","different","e/i"
"71wt","html-keyboard-response",87,310363,"0.0-10.0-1.36",NA,NA,NA,NA,NA,707,"p","tour1500tuer","Englisch","11","classeshome","selflearn",NA,"uni",NA,"immersion","In ein deutschsprachiges Land wohnen","20","14 Monaten","tour","tuer",1,"u","y","u/y","u/y","0","different","u/y"
"71wt","html-keyboard-response",89,314612,"0.0-10.0-1.37",NA,NA,NA,NA,NA,249,"q","spielen1500spielen","Englisch","11","classeshome","selflearn",NA,"uni",NA,"immersion","In ein deutschsprachiges Land wohnen","20","14 Monaten","spielen","spielen",0,"i_long","i_long","i_long/i_long","u/i","y/i","same","i/i"
"71wt","html-keyboard-response",91,318897,"0.0-10.0-1.38",NA,NA,NA,NA,NA,677,"q","lieder1500lieder","Englisch","11","classeshome","selflearn",NA,"uni",NA,"immersion","In ein deutschsprachiges Land wohnen","20","14 Monaten","lieder","lieder",0,"i_long","i_long","i_long/i_long","i/e","0","same","i/i"
"71wt","html-keyboard-response",93,322487,"0.0-10.0-1.39",NA,NA,NA,NA,NA,107,"p","kiel1500kuehl","Englisch","11","classeshome","selflearn",NA,"uni",NA,"immersion","In ein deutschsprachiges Land wohnen","20","14 Monaten","kiel","kuehl",1,"i_long","y","y/i_long","y/i","0","different","i/y"
"71wt","html-keyboard-response",95,326630,"0.0-10.0-1.40",NA,NA,NA,NA,NA,470,"p","leder1500lieder","Englisch","11","classeshome","selflearn",NA,"uni",NA,"immersion","In ein deutschsprachiges Land wohnen","20","14 Monaten","leder","lieder",1,"e_long","i_long","e_long/i_long","i/e","0","different","e/i"
"71wt","html-keyboard-response",97,331133,"0.0-10.0-1.41",NA,NA,NA,NA,NA,546,"p","stiel1500stuhl","Englisch","11","classeshome","selflearn",NA,"uni",NA,"immersion","In ein deutschsprachiges Land wohnen","20","14 Monaten","stiel","stuhl",1,"i_long","u","u/i_long","u/i","0","different","u/i"
"71wt","html-keyboard-response",99,334796,"0.0-10.0-1.42",NA,NA,NA,NA,NA,415,"q","tier1500tier","Englisch","11","classeshome","selflearn",NA,"uni",NA,"immersion","In ein deutschsprachiges Land wohnen","20","14 Monaten","tier","tier",0,"i_long","i_long","i_long/i_long","y/i","u/i","same","i/i"
"71wt","html-keyboard-response",101,338844,"0.0-10.0-1.43",NA,NA,NA,NA,NA,251,"p","stiel1500stuhl","Englisch","11","classeshome","selflearn",NA,"uni",NA,"immersion","In ein deutschsprachiges Land wohnen","20","14 Monaten","stiel","stuhl",1,"i_long","u","u/i_long","u/i","0","different","u/i"
"71wt","html-keyboard-response",103,343187,"0.0-10.0-1.44",NA,NA,NA,NA,NA,754,"p","bluten1500blueten","Englisch","11","classeshome","selflearn",NA,"uni",NA,"immersion","In ein deutschsprachiges Land wohnen","20","14 Monaten","bluten","blueten",1,"u","y","u/y","u/y","0","different","u/y"
"71wt","html-keyboard-response",105,347923,"0.0-10.0-1.45",NA,NA,NA,NA,NA,564,"q","spuelen1500spuelen","Englisch","11","classeshome","selflearn",NA,"uni",NA,"immersion","In ein deutschsprachiges Land wohnen","20","14 Monaten","spuelen","spuelen",0,"y","y","y/y","y/i","u/y","same","y/y"
"71wt","html-keyboard-response",107,352546,"0.0-10.0-1.46",NA,NA,NA,NA,NA,1093,"q","lieder1500lieder","Englisch","11","classeshome","selflearn",NA,"uni",NA,"immersion","In ein deutschsprachiges Land wohnen","20","14 Monaten","lieder","lieder",0,"i_long","i_long","i_long/i_long","i/e","0","same","i/i"
"71wt","html-keyboard-response",109,356071,"0.0-10.0-1.47",NA,NA,NA,NA,NA,274,"p","tour1500tier","Englisch","11","classeshome","selflearn",NA,"uni",NA,"immersion","In ein deutschsprachiges Land wohnen","20","14 Monaten","tour","tier",1,"u","i_long","u/i_long","u/i","0","different","u/i"
"71wt","html-keyboard-response",111,359664,"0.0-10.0-1.48",NA,NA,NA,NA,NA,354,"q","tuer1500tuer","Englisch","11","classeshome","selflearn",NA,"uni",NA,"immersion","In ein deutschsprachiges Land wohnen","20","14 Monaten","tuer","tuer",0,"y","y","y/y","y/i","u/i","same","y/y"
"71wt","html-keyboard-response",113,364034,"0.0-10.0-1.49",NA,NA,NA,NA,NA,533,"p","spulen1500spuelen","Englisch","11","classeshome","selflearn",NA,"uni",NA,"immersion","In ein deutschsprachiges Land wohnen","20","14 Monaten","spulen","spuelen",1,"u","y","u/y","u/y","0","different","u/y"
"71wt","html-keyboard-response",115,368258,"0.0-10.0-1.50",NA,NA,NA,NA,NA,428,"q","stiel1500stiel","Englisch","11","classeshome","selflearn",NA,"uni",NA,"immersion","In ein deutschsprachiges Land wohnen","20","14 Monaten","stiel","stiel",0,"i_long","i_long","i_long/i_long","u/i","0","same","i/i"
"71wt","html-keyboard-response",117,372250,"0.0-10.0-1.51",NA,NA,NA,NA,NA,453,"p","leder1500lieder","Englisch","11","classeshome","selflearn",NA,"uni",NA,"immersion","In ein deutschsprachiges Land wohnen","20","14 Monaten","leder","lieder",1,"e_long","i_long","e_long/i_long","i/e","0","different","e/i"
"71wt","html-keyboard-response",119,376344,"0.0-10.0-1.52",NA,NA,NA,NA,NA,668,"p","bluten1500blueten","Englisch","11","classeshome","selflearn",NA,"uni",NA,"immersion","In ein deutschsprachiges Land wohnen","20","14 Monaten","bluten","blueten",1,"u","y","u/y","u/y","0","different","u/y"
"71wt","html-keyboard-response",121,380040,"0.0-10.0-1.53",NA,NA,NA,NA,NA,322,"q","biene1500biene","Englisch","11","classeshome","selflearn",NA,"uni",NA,"immersion","In ein deutschsprachiges Land wohnen","20","14 Monaten","biene","biene",0,"i_long","i_long","i_long/i_long","y/i","0","same","i/i"
"71wt","html-keyboard-response",123,383737,"0.0-10.0-1.54",NA,NA,NA,NA,NA,456,"q","tour1500tour","Englisch","11","classeshome","selflearn",NA,"uni",NA,"immersion","In ein deutschsprachiges Land wohnen","20","14 Monaten","tour","tour",0,"u","u","u/u","u/i","u/y","same","u/u"
"71wt","html-keyboard-response",125,387896,"0.0-10.0-1.55",NA,NA,NA,NA,NA,781,"p","biene1500buehne","Englisch","11","classeshome","selflearn",NA,"uni",NA,"immersion","In ein deutschsprachiges Land wohnen","20","14 Monaten","biene","buehne",1,"i_long","y","y/i_long","y/i","0","different","i/y"
"71wt","html-keyboard-response",127,392345,"0.0-10.0-1.56",NA,NA,NA,NA,NA,586,"q","stuhl1500stuhl","Englisch","11","classeshome","selflearn",NA,"uni",NA,"immersion","In ein deutschsprachiges Land wohnen","20","14 Monaten","stuhl","stuhl",0,"u","u","u/u","u/i","0","same","u/u"
"71wt","html-keyboard-response",129,396676,"0.0-10.0-1.57",NA,NA,NA,NA,NA,925,"p","tier1500tour","Englisch","11","classeshome","selflearn",NA,"uni",NA,"immersion","In ein deutschsprachiges Land wohnen","20","14 Monaten","tier","tour",1,"i_long","u","u/i_long","u/i","0","different","u/i"
"71wt","html-keyboard-response",131,400554,"0.0-10.0-1.58",NA,NA,NA,NA,NA,339,"q","bluten1500bluten","Englisch","11","classeshome","selflearn",NA,"uni",NA,"immersion","In ein deutschsprachiges Land wohnen","20","14 Monaten","bluten","bluten",0,"u","u","u/u","u/y","0","same","u/u"
"71wt","html-keyboard-response",133,404567,"0.0-10.0-1.59",NA,NA,NA,NA,NA,772,"p","tier1500tour","Englisch","11","classeshome","selflearn",NA,"uni",NA,"immersion","In ein deutschsprachiges Land wohnen","20","14 Monaten","tier","tour",1,"i_long","u","u/i_long","u/i","0","different","u/i"
"71wt","html-keyboard-response",135,410217,"0.0-10.0-1.60",NA,NA,NA,NA,NA,1653,"p","spielen1500spuelen","Englisch","11","classeshome","selflearn",NA,"uni",NA,"immersion","In ein deutschsprachiges Land wohnen","20","14 Monaten","spielen","spuelen",1,"i_long","y","y/i_long","y/i","0","different","i/y"
"71wt","html-keyboard-response",137,414520,"0.0-10.0-1.61",NA,NA,NA,NA,NA,870,"p","tuer1500tour","Englisch","11","classeshome","selflearn",NA,"uni",NA,"immersion","In ein deutschsprachiges Land wohnen","20","14 Monaten","tuer","tour",1,"y","u","u/y","u/y","0","different","u/y"
