"","subject","trial_type","trial_index","time_elapsed","internal_node_id","success","timeout","failed_images","failed_audio","failed_video","rt","response","stimulus","native","AOL","LearnType1","LearnType2","LearnType3","LearnType4","LearnType5","LearnType6","which","AOA","timespent","audiostim","audionodeid","audiogiven","pic_choices","leftpic","rightpic","correct","vowelcontrast"
"228","0p5y","image-keyboard-response",227,705366,"0.0-17.0-1.0",NA,NA,NA,NA,NA,"1181","p","pics/scaled/tier_tour.jpg","Englisch","12","classeshome","selflearn",NA,"uni","classesabroad","immersion","4","18","1 Jahr","tour.wav","0.0-17.0-0.0","tour","tier_tour","tier","tour",1,"i/u"
"230","0p5y","image-keyboard-response",229,707720,"0.0-17.0-1.1",NA,NA,NA,NA,NA,"785","p","pics/scaled/stiel2_stuhl.jpg","Englisch","12","classeshome","selflearn",NA,"uni","classesabroad","immersion","4","18","1 Jahr","stuhl.wav","0.0-17.0-0.1","stuhl","stiel_stuhl","stiel","stuhl",1,"i/u"
"232","0p5y","image-keyboard-response",231,710002,"0.0-17.0-1.2",NA,NA,NA,NA,NA,"597","p","pics/scaled/spulen_spuelen.jpg","Englisch","12","classeshome","selflearn",NA,"uni","classesabroad","immersion","4","18","1 Jahr","spuelen2.wav","0.0-17.0-0.2","spuelen","spulen_spuelen","spulen","spuelen",1,"y/u"
"234","0p5y","image-keyboard-response",233,712110,"0.0-17.0-1.3",NA,NA,NA,NA,NA,"725","p","pics/scaled/biene_buehne.png","Englisch","12","classeshome","selflearn",NA,"uni","classesabroad","immersion","4","18","1 Jahr","buehne.wav","0.0-17.0-0.3","buehne","biene_buehne","biene","buehne",1,"y/i"
"236","0p5y","image-keyboard-response",235,714198,"0.0-17.0-1.4",NA,NA,NA,NA,NA,"653","p","pics/scaled/lieder_leder.jpg","Englisch","12","classeshome","selflearn",NA,"uni","classesabroad","immersion","4","18","1 Jahr","lieder.wav","0.0-17.0-0.4","lieder","lieder_leder","leder","lieder",1,"i/e"
"238","0p5y","image-keyboard-response",237,717874,"0.0-17.0-1.5",NA,NA,NA,NA,NA,"2089","q","pics/scaled/stiel2_stuhl.jpg","Englisch","12","classeshome","selflearn",NA,"uni","classesabroad","immersion","4","18","1 Jahr","stiel.wav","0.0-17.0-0.5","stiel","stiel_stuhl","stiel","stuhl",1,"i/u"
"240","0p5y","image-keyboard-response",239,720327,"0.0-17.0-1.6",NA,NA,NA,NA,NA,"862","p","pics/scaled/stiel2_stuhl.jpg","Englisch","12","classeshome","selflearn",NA,"uni","classesabroad","immersion","4","18","1 Jahr","stuhl.wav","0.0-17.0-0.6","stuhl","stiel_stuhl","stiel","stuhl",1,"i/u"
"242","0p5y","image-keyboard-response",241,722909,"0.0-17.0-1.7",NA,NA,NA,NA,NA,"1145","p","pics/scaled/kiel_kuehl.jpg","Englisch","12","classeshome","selflearn",NA,"uni","classesabroad","immersion","4","18","1 Jahr","kuehl.wav","0.0-17.0-0.7","kuehl","kiel_kuehl","kiel","kuehl",1,"y/i"
"244","0p5y","image-keyboard-response",243,724854,"0.0-17.0-1.8",NA,NA,NA,NA,NA,"489","q","pics/scaled/lieder_leder.jpg","Englisch","12","classeshome","selflearn",NA,"uni","classesabroad","immersion","4","18","1 Jahr","leder.wav","0.0-17.0-0.8","leder","lieder_leder","leder","lieder",1,"i/e"
"246","0p5y","image-keyboard-response",245,726835,"0.0-17.0-1.9",NA,NA,NA,NA,NA,"550","p","pics/scaled/lieder_leder.jpg","Englisch","12","classeshome","selflearn",NA,"uni","classesabroad","immersion","4","18","1 Jahr","lieder.wav","0.0-17.0-0.9","lieder","lieder_leder","leder","lieder",1,"i/e"
"248","0p5y","image-keyboard-response",247,729137,"0.0-17.0-1.10",NA,NA,NA,NA,NA,"993","p","pics/scaled/tier_tour.jpg","Englisch","12","classeshome","selflearn",NA,"uni","classesabroad","immersion","4","18","1 Jahr","tour.wav","0.0-17.0-0.10","tour","tier_tour","tier","tour",1,"i/u"
"250","0p5y","image-keyboard-response",249,732632,"0.0-17.0-1.11",NA,NA,NA,NA,NA,"2187","p","pics/scaled/tuer_tour.jpg","Englisch","12","classeshome","selflearn",NA,"uni","classesabroad","immersion","4","18","1 Jahr","tuer.wav","0.0-17.0-0.11","tuer","tuer_tour","tour","tuer",1,"y/u"
"252","0p5y","image-keyboard-response",251,735273,"0.0-17.0-1.12",NA,NA,NA,NA,NA,"949","p","pics/scaled/spulen_spuelen.jpg","Englisch","12","classeshome","selflearn",NA,"uni","classesabroad","immersion","4","18","1 Jahr","spuelen2.wav","0.0-17.0-0.12","spuelen","spulen_spuelen","spulen","spuelen",1,"y/u"
"254","0p5y","image-keyboard-response",253,737433,"0.0-17.0-1.13",NA,NA,NA,NA,NA,"389","q","pics/scaled/spielen_spuelen.jpg","Englisch","12","classeshome","selflearn",NA,"uni","classesabroad","immersion","4","18","1 Jahr","spielen.wav","0.0-17.0-0.13","spielen","spielen_spuelen","spielen","spuelen",1,"y/i"
"256","0p5y","image-keyboard-response",255,740229,"0.0-17.0-1.14",NA,NA,NA,NA,NA,"1095","q","pics/scaled/spielen_spulen.jpg","Englisch","12","classeshome","selflearn",NA,"uni","classesabroad","immersion","4","18","1 Jahr","spulen.wav","0.0-17.0-0.14","spulen","spielen_spulen","spulen","spielen",1,"i/u"
"258","0p5y","image-keyboard-response",257,742614,"0.0-17.0-1.15",NA,NA,NA,NA,NA,"680","p","pics/scaled/spielen_spulen.jpg","Englisch","12","classeshome","selflearn",NA,"uni","classesabroad","immersion","4","18","1 Jahr","spielen2.wav","0.0-17.0-0.15","spielen","spielen_spulen","spulen","spielen",1,"i/u"
"260","0p5y","image-keyboard-response",259,745629,"0.0-17.0-1.16",NA,NA,NA,NA,NA,"1434","p","pics/scaled/stiel2_stuhl.jpg","Englisch","12","classeshome","selflearn",NA,"uni","classesabroad","immersion","4","18","1 Jahr","stuhl.wav","0.0-17.0-0.16","stuhl","stiel_stuhl","stiel","stuhl",1,"i/u"
"262","0p5y","image-keyboard-response",261,747761,"0.0-17.0-1.17",NA,NA,NA,NA,NA,"466","q","pics/scaled/spielen_spuelen.jpg","Englisch","12","classeshome","selflearn",NA,"uni","classesabroad","immersion","4","18","1 Jahr","spielen.wav","0.0-17.0-0.17","spielen","spielen_spuelen","spielen","spuelen",1,"y/i"
"264","0p5y","image-keyboard-response",263,749962,"0.0-17.0-1.18",NA,NA,NA,NA,NA,"617","q","pics/scaled/stiel2_stuhl.jpg","Englisch","12","classeshome","selflearn",NA,"uni","classesabroad","immersion","4","18","1 Jahr","stiel.wav","0.0-17.0-0.18","stiel","stiel_stuhl","stiel","stuhl",1,"i/u"
"266","0p5y","image-keyboard-response",265,752610,"0.0-17.0-1.19",NA,NA,NA,NA,NA,"1226","p","pics/scaled/kiel_kuehl.jpg","Englisch","12","classeshome","selflearn",NA,"uni","classesabroad","immersion","4","18","1 Jahr","kuehl.wav","0.0-17.0-0.19","kuehl","kiel_kuehl","kiel","kuehl",1,"y/i"
"268","0p5y","image-keyboard-response",267,755924,"0.0-17.0-1.20",NA,NA,NA,NA,NA,"1950","p","pics/scaled/bluten_blueten.jpg","Englisch","12","classeshome","selflearn",NA,"uni","classesabroad","immersion","4","18","1 Jahr","blueten.wav","0.0-17.0-0.20","blueten","bluten_blueten","blueten","bluten",0,"y/u"
"270","0p5y","image-keyboard-response",269,758687,"0.0-17.0-1.21",NA,NA,NA,NA,NA,"1093","p","pics/scaled/spulen_spuelen.jpg","Englisch","12","classeshome","selflearn",NA,"uni","classesabroad","immersion","4","18","1 Jahr","spulen.wav","0.0-17.0-0.21","spulen","spulen_spuelen","spulen","spuelen",0,"y/u"
"272","0p5y","image-keyboard-response",271,761411,"0.0-17.0-1.22",NA,NA,NA,NA,NA,"1177","q","pics/scaled/stiel2_stuhl.jpg","Englisch","12","classeshome","selflearn",NA,"uni","classesabroad","immersion","4","18","1 Jahr","stiel.wav","0.0-17.0-0.22","stiel","stiel_stuhl","stiel","stuhl",1,"i/u"
"274","0p5y","image-keyboard-response",273,763455,"0.0-17.0-1.23",NA,NA,NA,NA,NA,"700","p","pics/scaled/biene_buehne.png","Englisch","12","classeshome","selflearn",NA,"uni","classesabroad","immersion","4","18","1 Jahr","buehne.wav","0.0-17.0-0.23","buehne","biene_buehne","biene","buehne",1,"y/i"
"276","0p5y","image-keyboard-response",275,766217,"0.0-17.0-1.24",NA,NA,NA,NA,NA,"1462","q","pics/scaled/tier_tour.jpg","Englisch","12","classeshome","selflearn",NA,"uni","classesabroad","immersion","4","18","1 Jahr","tier.wav","0.0-17.0-0.24","tier","tier_tour","tier","tour",1,"i/u"
"278","0p5y","image-keyboard-response",277,770129,"0.0-17.0-1.25",NA,NA,NA,NA,NA,"2535","p","pics/scaled/bluten_blueten.jpg","Englisch","12","classeshome","selflearn",NA,"uni","classesabroad","immersion","4","18","1 Jahr","bluten.wav","0.0-17.0-0.25","bluten","bluten_blueten","blueten","bluten",1,"y/u"
"280","0p5y","image-keyboard-response",279,772685,"0.0-17.0-1.26",NA,NA,NA,NA,NA,"890","p","pics/scaled/spulen_spuelen.jpg","Englisch","12","classeshome","selflearn",NA,"uni","classesabroad","immersion","4","18","1 Jahr","spuelen2.wav","0.0-17.0-0.26","spuelen","spulen_spuelen","spulen","spuelen",1,"y/u"
"282","0p5y","image-keyboard-response",281,776163,"0.0-17.0-1.27",NA,NA,NA,NA,NA,"1810","q","pics/scaled/spulen_spuelen.jpg","Englisch","12","classeshome","selflearn",NA,"uni","classesabroad","immersion","4","18","1 Jahr","spulen.wav","0.0-17.0-0.27","spulen","spulen_spuelen","spulen","spuelen",1,"y/u"
"284","0p5y","image-keyboard-response",283,778419,"0.0-17.0-1.28",NA,NA,NA,NA,NA,"595","p","pics/scaled/spielen_spuelen.jpg","Englisch","12","classeshome","selflearn",NA,"uni","classesabroad","immersion","4","18","1 Jahr","spuelen2.wav","0.0-17.0-0.28","spuelen","spielen_spuelen","spielen","spuelen",1,"y/i"
"286","0p5y","image-keyboard-response",285,782730,"0.0-17.0-1.29",NA,NA,NA,NA,NA,"2706","q","pics/scaled/siegel_segel.jpg","Englisch","12","classeshome","selflearn",NA,"uni","classesabroad","immersion","4","18","1 Jahr","siegel.wav","0.0-17.0-0.29","siegel","siegel_segel","segel","siegel",0,"i/e"
"288","0p5y","image-keyboard-response",287,785691,"0.0-17.0-1.30",NA,NA,NA,NA,NA,"1547","q","pics/scaled/kiel_kuehl.jpg","Englisch","12","classeshome","selflearn",NA,"uni","classesabroad","immersion","4","18","1 Jahr","kiel.wav","0.0-17.0-0.30","kiel","kiel_kuehl","kiel","kuehl",1,"y/i"
"290","0p5y","image-keyboard-response",289,789036,"0.0-17.0-1.31",NA,NA,NA,NA,NA,"2072","p","pics/scaled/tuer_tour.jpg","Englisch","12","classeshome","selflearn",NA,"uni","classesabroad","immersion","4","18","1 Jahr","tour.wav","0.0-17.0-0.31","tour","tuer_tour","tour","tuer",0,"y/u"
"292","0p5y","image-keyboard-response",291,792145,"0.0-17.0-1.32",NA,NA,NA,NA,NA,"1740","p","pics/scaled/bluten_blueten.jpg","Englisch","12","classeshome","selflearn",NA,"uni","classesabroad","immersion","4","18","1 Jahr","bluten.wav","0.0-17.0-0.32","bluten","bluten_blueten","blueten","bluten",1,"y/u"
"294","0p5y","image-keyboard-response",293,794222,"0.0-17.0-1.33",NA,NA,NA,NA,NA,"658","p","pics/scaled/kiel_kuehl.jpg","Englisch","12","classeshome","selflearn",NA,"uni","classesabroad","immersion","4","18","1 Jahr","kuehl.wav","0.0-17.0-0.33","kuehl","kiel_kuehl","kiel","kuehl",1,"y/i"
"296","0p5y","image-keyboard-response",295,796086,"0.0-17.0-1.34",NA,NA,NA,NA,NA,"461","q","pics/scaled/kiel_kuehl.jpg","Englisch","12","classeshome","selflearn",NA,"uni","classesabroad","immersion","4","18","1 Jahr","kiel.wav","0.0-17.0-0.34","kiel","kiel_kuehl","kiel","kuehl",1,"y/i"
"298","0p5y","image-keyboard-response",297,798673,"0.0-17.0-1.35",NA,NA,NA,NA,NA,"1289","p","pics/scaled/tuer_tour.jpg","Englisch","12","classeshome","selflearn",NA,"uni","classesabroad","immersion","4","18","1 Jahr","tuer.wav","0.0-17.0-0.35","tuer","tuer_tour","tour","tuer",1,"y/u"
"300","0p5y","image-keyboard-response",299,801826,"0.0-17.0-1.36",NA,NA,NA,NA,NA,"1461","q","pics/scaled/spielen_spulen.jpg","Englisch","12","classeshome","selflearn",NA,"uni","classesabroad","immersion","4","18","1 Jahr","spulen.wav","0.0-17.0-0.36","spulen","spielen_spulen","spulen","spielen",1,"i/u"
"302","0p5y","image-keyboard-response",301,805012,"0.0-17.0-1.37",NA,NA,NA,NA,NA,"1887","q","pics/scaled/tier_tour.jpg","Englisch","12","classeshome","selflearn",NA,"uni","classesabroad","immersion","4","18","1 Jahr","tier.wav","0.0-17.0-0.37","tier","tier_tour","tier","tour",1,"i/u"
"304","0p5y","image-keyboard-response",303,808083,"0.0-17.0-1.38",NA,NA,NA,NA,NA,"1698","p","pics/scaled/bluten_blueten.jpg","Englisch","12","classeshome","selflearn",NA,"uni","classesabroad","immersion","4","18","1 Jahr","blueten.wav","0.0-17.0-0.38","blueten","bluten_blueten","blueten","bluten",0,"y/u"
"306","0p5y","image-keyboard-response",305,810038,"0.0-17.0-1.39",NA,NA,NA,NA,NA,"594","p","pics/scaled/biene_buehne.png","Englisch","12","classeshome","selflearn",NA,"uni","classesabroad","immersion","4","18","1 Jahr","buehne.wav","0.0-17.0-0.39","buehne","biene_buehne","biene","buehne",1,"y/i"
"308","0p5y","image-keyboard-response",307,812190,"0.0-17.0-1.40",NA,NA,NA,NA,NA,"885","p","pics/scaled/tuer_tour.jpg","Englisch","12","classeshome","selflearn",NA,"uni","classesabroad","immersion","4","18","1 Jahr","tuer.wav","0.0-17.0-0.40","tuer","tuer_tour","tour","tuer",1,"y/u"
"310","0p5y","image-keyboard-response",309,814108,"0.0-17.0-1.41",NA,NA,NA,NA,NA,"484","q","pics/scaled/lieder_leder.jpg","Englisch","12","classeshome","selflearn",NA,"uni","classesabroad","immersion","4","18","1 Jahr","leder.wav","0.0-17.0-0.41","leder","lieder_leder","leder","lieder",1,"i/e"
"312","0p5y","image-keyboard-response",311,816142,"0.0-17.0-1.42",NA,NA,NA,NA,NA,"357","p","pics/scaled/spielen_spulen.jpg","Englisch","12","classeshome","selflearn",NA,"uni","classesabroad","immersion","4","18","1 Jahr","spielen2.wav","0.0-17.0-0.42","spielen","spielen_spulen","spulen","spielen",1,"i/u"
"314","0p5y","image-keyboard-response",313,819754,"0.0-17.0-1.43",NA,NA,NA,NA,NA,"1929","p","pics/scaled/spulen_spuelen.jpg","Englisch","12","classeshome","selflearn",NA,"uni","classesabroad","immersion","4","18","1 Jahr","spulen.wav","0.0-17.0-0.43","spulen","spulen_spuelen","spulen","spuelen",0,"y/u"
"316","0p5y","image-keyboard-response",315,822704,"0.0-17.0-1.44",NA,NA,NA,NA,NA,"1580","p","pics/scaled/bluten_blueten.jpg","Englisch","12","classeshome","selflearn",NA,"uni","classesabroad","immersion","4","18","1 Jahr","bluten.wav","0.0-17.0-0.44","bluten","bluten_blueten","blueten","bluten",1,"y/u"
"318","0p5y","image-keyboard-response",317,824535,"0.0-17.0-1.45",NA,NA,NA,NA,NA,"411","q","pics/scaled/lieder_leder.jpg","Englisch","12","classeshome","selflearn",NA,"uni","classesabroad","immersion","4","18","1 Jahr","leder.wav","0.0-17.0-0.45","leder","lieder_leder","leder","lieder",1,"i/e"
"320","0p5y","image-keyboard-response",319,827226,"0.0-17.0-1.46",NA,NA,NA,NA,NA,"1341","p","pics/scaled/bluten_blueten.jpg","Englisch","12","classeshome","selflearn",NA,"uni","classesabroad","immersion","4","18","1 Jahr","blueten.wav","0.0-17.0-0.46","blueten","bluten_blueten","blueten","bluten",0,"y/u"
"322","0p5y","image-keyboard-response",321,829155,"0.0-17.0-1.47",NA,NA,NA,NA,NA,"531","q","pics/scaled/kiel_kuehl.jpg","Englisch","12","classeshome","selflearn",NA,"uni","classesabroad","immersion","4","18","1 Jahr","kiel.wav","0.0-17.0-0.47","kiel","kiel_kuehl","kiel","kuehl",1,"y/i"
"324","0p5y","image-keyboard-response",323,831222,"0.0-17.0-1.48",NA,NA,NA,NA,NA,"397","p","pics/scaled/spielen_spuelen.jpg","Englisch","12","classeshome","selflearn",NA,"uni","classesabroad","immersion","4","18","1 Jahr","spuelen2.wav","0.0-17.0-0.48","spuelen","spielen_spuelen","spielen","spuelen",1,"y/i"
"326","0p5y","image-keyboard-response",325,833269,"0.0-17.0-1.49",NA,NA,NA,NA,NA,"365","p","pics/scaled/spielen_spulen.jpg","Englisch","12","classeshome","selflearn",NA,"uni","classesabroad","immersion","4","18","1 Jahr","spielen2.wav","0.0-17.0-0.49","spielen","spielen_spulen","spulen","spielen",1,"i/u"
"328","0p5y","image-keyboard-response",327,835408,"0.0-17.0-1.50",NA,NA,NA,NA,NA,"464","q","pics/scaled/spielen_spuelen.jpg","Englisch","12","classeshome","selflearn",NA,"uni","classesabroad","immersion","4","18","1 Jahr","spielen.wav","0.0-17.0-0.50","spielen","spielen_spuelen","spielen","spuelen",1,"y/i"
"330","0p5y","image-keyboard-response",329,837328,"0.0-17.0-1.51",NA,NA,NA,NA,NA,"583","q","pics/scaled/biene_buehne.png","Englisch","12","classeshome","selflearn",NA,"uni","classesabroad","immersion","4","18","1 Jahr","biene.wav","0.0-17.0-0.51","biene","biene_buehne","biene","buehne",1,"y/i"
"332","0p5y","image-keyboard-response",331,840568,"0.0-17.0-1.52",NA,NA,NA,NA,NA,"1644","q","pics/scaled/siegel_segel.jpg","Englisch","12","classeshome","selflearn",NA,"uni","classesabroad","immersion","4","18","1 Jahr","siegel.wav","0.0-17.0-0.52","siegel","siegel_segel","segel","siegel",0,"i/e"
"334","0p5y","image-keyboard-response",333,843979,"0.0-17.0-1.53",NA,NA,NA,NA,NA,"1815","q","pics/scaled/siegel_segel.jpg","Englisch","12","classeshome","selflearn",NA,"uni","classesabroad","immersion","4","18","1 Jahr","segel.wav","0.0-17.0-0.53","segel","siegel_segel","segel","siegel",1,"i/e"
"336","0p5y","image-keyboard-response",335,846237,"0.0-17.0-1.54",NA,NA,NA,NA,NA,"653","q","pics/scaled/siegel_segel.jpg","Englisch","12","classeshome","selflearn",NA,"uni","classesabroad","immersion","4","18","1 Jahr","segel.wav","0.0-17.0-0.54","segel","siegel_segel","segel","siegel",1,"i/e"
"338","0p5y","image-keyboard-response",337,848313,"0.0-17.0-1.55",NA,NA,NA,NA,NA,"649","q","pics/scaled/lieder_leder.jpg","Englisch","12","classeshome","selflearn",NA,"uni","classesabroad","immersion","4","18","1 Jahr","lieder.wav","0.0-17.0-0.55","lieder","lieder_leder","leder","lieder",0,"i/e"
"340","0p5y","image-keyboard-response",339,850851,"0.0-17.0-1.56",NA,NA,NA,NA,NA,"1247","p","pics/scaled/tier_tour.jpg","Englisch","12","classeshome","selflearn",NA,"uni","classesabroad","immersion","4","18","1 Jahr","tour.wav","0.0-17.0-0.56","tour","tier_tour","tier","tour",1,"i/u"
"342","0p5y","image-keyboard-response",341,853656,"0.0-17.0-1.57",NA,NA,NA,NA,NA,"1212","p","pics/scaled/siegel_segel.jpg","Englisch","12","classeshome","selflearn",NA,"uni","classesabroad","immersion","4","18","1 Jahr","siegel.wav","0.0-17.0-0.57","siegel","siegel_segel","segel","siegel",1,"i/e"
"344","0p5y","image-keyboard-response",343,856753,"0.0-17.0-1.58",NA,NA,NA,NA,NA,"1829","q","pics/scaled/tuer_tour.jpg","Englisch","12","classeshome","selflearn",NA,"uni","classesabroad","immersion","4","18","1 Jahr","tour.wav","0.0-17.0-0.58","tour","tuer_tour","tour","tuer",1,"y/u"
"346","0p5y","image-keyboard-response",345,859248,"0.0-17.0-1.59",NA,NA,NA,NA,NA,"805","q","pics/scaled/spielen_spulen.jpg","Englisch","12","classeshome","selflearn",NA,"uni","classesabroad","immersion","4","18","1 Jahr","spulen.wav","0.0-17.0-0.59","spulen","spielen_spulen","spulen","spielen",1,"i/u"
"348","0p5y","image-keyboard-response",347,861093,"0.0-17.0-1.60",NA,NA,NA,NA,NA,"489","q","pics/scaled/biene_buehne.png","Englisch","12","classeshome","selflearn",NA,"uni","classesabroad","immersion","4","18","1 Jahr","biene.wav","0.0-17.0-0.60","biene","biene_buehne","biene","buehne",1,"y/i"
"350","0p5y","image-keyboard-response",349,863312,"0.0-17.0-1.61",NA,NA,NA,NA,NA,"927","p","pics/scaled/tuer_tour.jpg","Englisch","12","classeshome","selflearn",NA,"uni","classesabroad","immersion","4","18","1 Jahr","tour.wav","0.0-17.0-0.61","tour","tuer_tour","tour","tuer",0,"y/u"
"352","0p5y","image-keyboard-response",351,865116,"0.0-17.0-1.62",NA,NA,NA,NA,NA,"512","q","pics/scaled/tier_tour.jpg","Englisch","12","classeshome","selflearn",NA,"uni","classesabroad","immersion","4","18","1 Jahr","tier.wav","0.0-17.0-0.62","tier","tier_tour","tier","tour",1,"i/u"
"354","0p5y","image-keyboard-response",353,866983,"0.0-17.0-1.63",NA,NA,NA,NA,NA,"519","q","pics/scaled/biene_buehne.png","Englisch","12","classeshome","selflearn",NA,"uni","classesabroad","immersion","4","18","1 Jahr","biene.wav","0.0-17.0-0.63","biene","biene_buehne","biene","buehne",1,"y/i"
"356","0p5y","image-keyboard-response",355,870096,"0.0-17.0-1.64",NA,NA,NA,NA,NA,"1511","p","pics/scaled/siegel_segel.jpg","Englisch","12","classeshome","selflearn",NA,"uni","classesabroad","immersion","4","18","1 Jahr","segel.wav","0.0-17.0-0.64","segel","siegel_segel","segel","siegel",0,"i/e"
"358","0p5y","image-keyboard-response",357,872327,"0.0-17.0-1.65",NA,NA,NA,NA,NA,"563","p","pics/scaled/spielen_spuelen.jpg","Englisch","12","classeshome","selflearn",NA,"uni","classesabroad","immersion","4","18","1 Jahr","spuelen2.wav","0.0-17.0-0.65","spuelen","spielen_spuelen","spielen","spuelen",1,"y/i"
"586","0pan","image-keyboard-response",227,741310,"0.0-17.0-1.0",NA,NA,NA,NA,NA,"805","q","pics/scaled/stiel2_stuhl.jpg","Englisch","11",NA,"selflearn",NA,"uni","classesabroad","immersion","Deutsch an der Uni","24","7 Monate","stiel.wav","0.0-17.0-0.0","stiel","stiel_stuhl","stiel","stuhl",1,"i/u"
"588","0pan","image-keyboard-response",229,743639,"0.0-17.0-1.1",NA,NA,NA,NA,NA,"410","q","pics/scaled/stiel2_stuhl.jpg","Englisch","11",NA,"selflearn",NA,"uni","classesabroad","immersion","Deutsch an der Uni","24","7 Monate","stiel.wav","0.0-17.0-0.1","stiel","stiel_stuhl","stiel","stuhl",1,"i/u"
"590","0pan","image-keyboard-response",231,745854,"0.0-17.0-1.2",NA,NA,NA,NA,NA,"466","q","pics/scaled/kiel_kuehl.jpg","Englisch","11",NA,"selflearn",NA,"uni","classesabroad","immersion","Deutsch an der Uni","24","7 Monate","kiel.wav","0.0-17.0-0.2","kiel","kiel_kuehl","kiel","kuehl",1,"y/i"
"592","0pan","image-keyboard-response",233,748858,"0.0-17.0-1.3",NA,NA,NA,NA,NA,"1054","p","pics/scaled/siegel_segel.jpg","Englisch","11",NA,"selflearn",NA,"uni","classesabroad","immersion","Deutsch an der Uni","24","7 Monate","siegel.wav","0.0-17.0-0.3","siegel","siegel_segel","segel","siegel",1,"i/e"
"594","0pan","image-keyboard-response",235,751378,"0.0-17.0-1.4",NA,NA,NA,NA,NA,"754","p","pics/scaled/lieder_leder.jpg","Englisch","11",NA,"selflearn",NA,"uni","classesabroad","immersion","Deutsch an der Uni","24","7 Monate","lieder.wav","0.0-17.0-0.4","lieder","lieder_leder","leder","lieder",1,"i/e"
"596","0pan","image-keyboard-response",237,753324,"0.0-17.0-1.5",NA,NA,NA,NA,NA,"180","q","pics/scaled/lieder_leder.jpg","Englisch","11",NA,"selflearn",NA,"uni","classesabroad","immersion","Deutsch an der Uni","24","7 Monate","leder.wav","0.0-17.0-0.5","leder","lieder_leder","leder","lieder",1,"i/e"
"598","0pan","image-keyboard-response",239,755439,"0.0-17.0-1.6",NA,NA,NA,NA,NA,"495","p","pics/scaled/tier_tour.jpg","Englisch","11",NA,"selflearn",NA,"uni","classesabroad","immersion","Deutsch an der Uni","24","7 Monate","tour.wav","0.0-17.0-0.6","tour","tier_tour","tier","tour",1,"i/u"
"600","0pan","image-keyboard-response",241,759534,"0.0-17.0-1.7",NA,NA,NA,NA,NA,"2066","q","pics/scaled/spulen_spuelen.jpg","Englisch","11",NA,"selflearn",NA,"uni","classesabroad","immersion","Deutsch an der Uni","24","7 Monate","spulen.wav","0.0-17.0-0.7","spulen","spulen_spuelen","spulen","spuelen",1,"y/u"
"602","0pan","image-keyboard-response",243,761997,"0.0-17.0-1.8",NA,NA,NA,NA,NA,"790","q","pics/scaled/biene_buehne.png","Englisch","11",NA,"selflearn",NA,"uni","classesabroad","immersion","Deutsch an der Uni","24","7 Monate","biene.wav","0.0-17.0-0.8","biene","biene_buehne","biene","buehne",1,"y/i"
"604","0pan","image-keyboard-response",245,764945,"0.0-17.0-1.9",NA,NA,NA,NA,NA,"918","p","pics/scaled/spielen_spuelen.jpg","Englisch","11",NA,"selflearn",NA,"uni","classesabroad","immersion","Deutsch an der Uni","24","7 Monate","spuelen2.wav","0.0-17.0-0.9","spuelen","spielen_spuelen","spielen","spuelen",1,"y/i"
"606","0pan","image-keyboard-response",247,767531,"0.0-17.0-1.10",NA,NA,NA,NA,NA,"564","q","pics/scaled/spulen_spuelen.jpg","Englisch","11",NA,"selflearn",NA,"uni","classesabroad","immersion","Deutsch an der Uni","24","7 Monate","spulen.wav","0.0-17.0-0.10","spulen","spulen_spuelen","spulen","spuelen",1,"y/u"
"608","0pan","image-keyboard-response",249,769702,"0.0-17.0-1.11",NA,NA,NA,NA,NA,"134","p","pics/scaled/spielen_spulen.jpg","Englisch","11",NA,"selflearn",NA,"uni","classesabroad","immersion","Deutsch an der Uni","24","7 Monate","spielen2.wav","0.0-17.0-0.11","spielen","spielen_spulen","spulen","spielen",1,"i/u"
"610","0pan","image-keyboard-response",251,771886,"0.0-17.0-1.12",NA,NA,NA,NA,NA,"438","q","pics/scaled/kiel_kuehl.jpg","Englisch","11",NA,"selflearn",NA,"uni","classesabroad","immersion","Deutsch an der Uni","24","7 Monate","kiel.wav","0.0-17.0-0.12","kiel","kiel_kuehl","kiel","kuehl",1,"y/i"
"612","0pan","image-keyboard-response",253,774045,"0.0-17.0-1.13",NA,NA,NA,NA,NA,"280","p","pics/scaled/stiel2_stuhl.jpg","Englisch","11",NA,"selflearn",NA,"uni","classesabroad","immersion","Deutsch an der Uni","24","7 Monate","stuhl.wav","0.0-17.0-0.13","stuhl","stiel_stuhl","stiel","stuhl",1,"i/u"
"614","0pan","image-keyboard-response",255,776419,"0.0-17.0-1.14",NA,NA,NA,NA,NA,"432","q","pics/scaled/siegel_segel.jpg","Englisch","11",NA,"selflearn",NA,"uni","classesabroad","immersion","Deutsch an der Uni","24","7 Monate","segel.wav","0.0-17.0-0.14","segel","siegel_segel","segel","siegel",1,"i/e"
"616","0pan","image-keyboard-response",257,778455,"0.0-17.0-1.15",NA,NA,NA,NA,NA,"87","p","pics/scaled/siegel_segel.jpg","Englisch","11",NA,"selflearn",NA,"uni","classesabroad","immersion","Deutsch an der Uni","24","7 Monate","siegel.wav","0.0-17.0-0.15","siegel","siegel_segel","segel","siegel",1,"i/e"
"618","0pan","image-keyboard-response",259,781559,"0.0-17.0-1.16",NA,NA,NA,NA,NA,"1373","q","pics/scaled/bluten_blueten.jpg","Englisch","11",NA,"selflearn",NA,"uni","classesabroad","immersion","Deutsch an der Uni","24","7 Monate","bluten.wav","0.0-17.0-0.16","bluten","bluten_blueten","blueten","bluten",0,"y/u"
"620","0pan","image-keyboard-response",261,785215,"0.0-17.0-1.17",NA,NA,NA,NA,NA,"2789","p","pics/scaled/bluten_blueten.jpg","Englisch","11",NA,"selflearn",NA,"uni","classesabroad","immersion","Deutsch an der Uni","24","7 Monate","blueten.wav","0.0-17.0-0.17","blueten","bluten_blueten","blueten","bluten",0,"y/u"
"622","0pan","image-keyboard-response",263,788354,"0.0-17.0-1.18",NA,NA,NA,NA,NA,"1091","q","pics/scaled/spielen_spuelen.jpg","Englisch","11",NA,"selflearn",NA,"uni","classesabroad","immersion","Deutsch an der Uni","24","7 Monate","spielen.wav","0.0-17.0-0.18","spielen","spielen_spuelen","spielen","spuelen",1,"y/i"
"624","0pan","image-keyboard-response",265,791369,"0.0-17.0-1.19",NA,NA,NA,NA,NA,"1282","q","pics/scaled/bluten_blueten.jpg","Englisch","11",NA,"selflearn",NA,"uni","classesabroad","immersion","Deutsch an der Uni","24","7 Monate","bluten.wav","0.0-17.0-0.19","bluten","bluten_blueten","blueten","bluten",0,"y/u"
"626","0pan","image-keyboard-response",267,794159,"0.0-17.0-1.20",NA,NA,NA,NA,NA,"1032","p","pics/scaled/lieder_leder.jpg","Englisch","11",NA,"selflearn",NA,"uni","classesabroad","immersion","Deutsch an der Uni","24","7 Monate","lieder.wav","0.0-17.0-0.20","lieder","lieder_leder","leder","lieder",1,"i/e"
"628","0pan","image-keyboard-response",269,797183,"0.0-17.0-1.21",NA,NA,NA,NA,NA,"1018","p","pics/scaled/spulen_spuelen.jpg","Englisch","11",NA,"selflearn",NA,"uni","classesabroad","immersion","Deutsch an der Uni","24","7 Monate","spuelen2.wav","0.0-17.0-0.21","spuelen","spulen_spuelen","spulen","spuelen",1,"y/u"
"630","0pan","image-keyboard-response",271,801751,"0.0-17.0-1.22",NA,NA,NA,NA,NA,"3685","p","pics/scaled/biene_buehne.png","Englisch","11",NA,"selflearn",NA,"uni","classesabroad","immersion","Deutsch an der Uni","24","7 Monate","buehne.wav","0.0-17.0-0.22","buehne","biene_buehne","biene","buehne",1,"y/i"
"632","0pan","image-keyboard-response",273,804631,"0.0-17.0-1.23",NA,NA,NA,NA,NA,"1245","p","pics/scaled/tier_tour.jpg","Englisch","11",NA,"selflearn",NA,"uni","classesabroad","immersion","Deutsch an der Uni","24","7 Monate","tour.wav","0.0-17.0-0.23","tour","tier_tour","tier","tour",1,"i/u"
"634","0pan","image-keyboard-response",275,807151,"0.0-17.0-1.24",NA,NA,NA,NA,NA,"826","q","pics/scaled/biene_buehne.png","Englisch","11",NA,"selflearn",NA,"uni","classesabroad","immersion","Deutsch an der Uni","24","7 Monate","biene.wav","0.0-17.0-0.24","biene","biene_buehne","biene","buehne",1,"y/i"
"636","0pan","image-keyboard-response",277,809929,"0.0-17.0-1.25",NA,NA,NA,NA,NA,"864","p","pics/scaled/stiel2_stuhl.jpg","Englisch","11",NA,"selflearn",NA,"uni","classesabroad","immersion","Deutsch an der Uni","24","7 Monate","stuhl.wav","0.0-17.0-0.25","stuhl","stiel_stuhl","stiel","stuhl",1,"i/u"
"638","0pan","image-keyboard-response",279,813146,"0.0-17.0-1.26",NA,NA,NA,NA,NA,"2341","q","pics/scaled/tier_tour.jpg","Englisch","11",NA,"selflearn",NA,"uni","classesabroad","immersion","Deutsch an der Uni","24","7 Monate","tier.wav","0.0-17.0-0.26","tier","tier_tour","tier","tour",1,"i/u"
"640","0pan","image-keyboard-response",281,815835,"0.0-17.0-1.27",NA,NA,NA,NA,NA,"750","p","pics/scaled/siegel_segel.jpg","Englisch","11",NA,"selflearn",NA,"uni","classesabroad","immersion","Deutsch an der Uni","24","7 Monate","siegel.wav","0.0-17.0-0.27","siegel","siegel_segel","segel","siegel",1,"i/e"
"642","0pan","image-keyboard-response",283,819210,"0.0-17.0-1.28",NA,NA,NA,NA,NA,"1745","q","pics/scaled/tuer_tour.jpg","Englisch","11",NA,"selflearn",NA,"uni","classesabroad","immersion","Deutsch an der Uni","24","7 Monate","tour.wav","0.0-17.0-0.28","tour","tuer_tour","tour","tuer",1,"y/u"
"644","0pan","image-keyboard-response",285,822664,"0.0-17.0-1.29",NA,NA,NA,NA,NA,"2549","p","pics/scaled/bluten_blueten.jpg","Englisch","11",NA,"selflearn",NA,"uni","classesabroad","immersion","Deutsch an der Uni","24","7 Monate","blueten.wav","0.0-17.0-0.29","blueten","bluten_blueten","blueten","bluten",0,"y/u"
"646","0pan","image-keyboard-response",287,826196,"0.0-17.0-1.30",NA,NA,NA,NA,NA,"2639","p","pics/scaled/biene_buehne.png","Englisch","11",NA,"selflearn",NA,"uni","classesabroad","immersion","Deutsch an der Uni","24","7 Monate","buehne.wav","0.0-17.0-0.30","buehne","biene_buehne","biene","buehne",1,"y/i"
"648","0pan","image-keyboard-response",289,828491,"0.0-17.0-1.31",NA,NA,NA,NA,NA,"687","p","pics/scaled/tuer_tour.jpg","Englisch","11",NA,"selflearn",NA,"uni","classesabroad","immersion","Deutsch an der Uni","24","7 Monate","tuer.wav","0.0-17.0-0.31","tuer","tuer_tour","tour","tuer",1,"y/u"
"650","0pan","image-keyboard-response",291,831315,"0.0-17.0-1.32",NA,NA,NA,NA,NA,"809","p","pics/scaled/spielen_spuelen.jpg","Englisch","11",NA,"selflearn",NA,"uni","classesabroad","immersion","Deutsch an der Uni","24","7 Monate","spuelen2.wav","0.0-17.0-0.32","spuelen","spielen_spuelen","spielen","spuelen",1,"y/i"
"652","0pan","image-keyboard-response",293,835286,"0.0-17.0-1.33",NA,NA,NA,NA,NA,"1985","p","pics/scaled/spulen_spuelen.jpg","Englisch","11",NA,"selflearn",NA,"uni","classesabroad","immersion","Deutsch an der Uni","24","7 Monate","spuelen2.wav","0.0-17.0-0.33","spuelen","spulen_spuelen","spulen","spuelen",1,"y/u"
"654","0pan","image-keyboard-response",295,837726,"0.0-17.0-1.34",NA,NA,NA,NA,NA,"825","p","pics/scaled/tuer_tour.jpg","Englisch","11",NA,"selflearn",NA,"uni","classesabroad","immersion","Deutsch an der Uni","24","7 Monate","tuer.wav","0.0-17.0-0.34","tuer","tuer_tour","tour","tuer",1,"y/u"
"656","0pan","image-keyboard-response",297,840089,"0.0-17.0-1.35",NA,NA,NA,NA,NA,"405","q","pics/scaled/siegel_segel.jpg","Englisch","11",NA,"selflearn",NA,"uni","classesabroad","immersion","Deutsch an der Uni","24","7 Monate","segel.wav","0.0-17.0-0.35","segel","siegel_segel","segel","siegel",1,"i/e"
"658","0pan","image-keyboard-response",299,842530,"0.0-17.0-1.36",NA,NA,NA,NA,NA,"746","q","pics/scaled/biene_buehne.png","Englisch","11",NA,"selflearn",NA,"uni","classesabroad","immersion","Deutsch an der Uni","24","7 Monate","biene.wav","0.0-17.0-0.36","biene","biene_buehne","biene","buehne",1,"y/i"
"660","0pan","image-keyboard-response",301,847378,"0.0-17.0-1.37",NA,NA,NA,NA,NA,"3974","p","pics/scaled/tier_tour.jpg","Englisch","11",NA,"selflearn",NA,"uni","classesabroad","immersion","Deutsch an der Uni","24","7 Monate","tier.wav","0.0-17.0-0.37","tier","tier_tour","tier","tour",0,"i/u"
"662","0pan","image-keyboard-response",303,849741,"0.0-17.0-1.38",NA,NA,NA,NA,NA,"616","p","pics/scaled/kiel_kuehl.jpg","Englisch","11",NA,"selflearn",NA,"uni","classesabroad","immersion","Deutsch an der Uni","24","7 Monate","kuehl.wav","0.0-17.0-0.38","kuehl","kiel_kuehl","kiel","kuehl",1,"y/i"
"664","0pan","image-keyboard-response",305,852609,"0.0-17.0-1.39",NA,NA,NA,NA,NA,"1129","q","pics/scaled/lieder_leder.jpg","Englisch","11",NA,"selflearn",NA,"uni","classesabroad","immersion","Deutsch an der Uni","24","7 Monate","leder.wav","0.0-17.0-0.39","leder","lieder_leder","leder","lieder",1,"i/e"
"666","0pan","image-keyboard-response",307,854825,"0.0-17.0-1.40",NA,NA,NA,NA,NA,"581","p","pics/scaled/tuer_tour.jpg","Englisch","11",NA,"selflearn",NA,"uni","classesabroad","immersion","Deutsch an der Uni","24","7 Monate","tuer.wav","0.0-17.0-0.40","tuer","tuer_tour","tour","tuer",1,"y/u"
"668","0pan","image-keyboard-response",309,857805,"0.0-17.0-1.41",NA,NA,NA,NA,NA,"962","q","pics/scaled/spielen_spulen.jpg","Englisch","11",NA,"selflearn",NA,"uni","classesabroad","immersion","Deutsch an der Uni","24","7 Monate","spulen.wav","0.0-17.0-0.41","spulen","spielen_spulen","spulen","spielen",1,"i/u"
"670","0pan","image-keyboard-response",311,860529,"0.0-17.0-1.42",NA,NA,NA,NA,NA,"985","p","pics/scaled/kiel_kuehl.jpg","Englisch","11",NA,"selflearn",NA,"uni","classesabroad","immersion","Deutsch an der Uni","24","7 Monate","kuehl.wav","0.0-17.0-0.42","kuehl","kiel_kuehl","kiel","kuehl",1,"y/i"
"672","0pan","image-keyboard-response",313,863127,"0.0-17.0-1.43",NA,NA,NA,NA,NA,"564","q","pics/scaled/spielen_spulen.jpg","Englisch","11",NA,"selflearn",NA,"uni","classesabroad","immersion","Deutsch an der Uni","24","7 Monate","spulen.wav","0.0-17.0-0.43","spulen","spielen_spulen","spulen","spielen",1,"i/u"
"674","0pan","image-keyboard-response",315,866153,"0.0-17.0-1.44",NA,NA,NA,NA,NA,"1290","q","pics/scaled/bluten_blueten.jpg","Englisch","11",NA,"selflearn",NA,"uni","classesabroad","immersion","Deutsch an der Uni","24","7 Monate","bluten.wav","0.0-17.0-0.44","bluten","bluten_blueten","blueten","bluten",0,"y/u"
"676","0pan","image-keyboard-response",317,869729,"0.0-17.0-1.45",NA,NA,NA,NA,NA,"2700","p","pics/scaled/tier_tour.jpg","Englisch","11",NA,"selflearn",NA,"uni","classesabroad","immersion","Deutsch an der Uni","24","7 Monate","tier.wav","0.0-17.0-0.45","tier","tier_tour","tier","tour",0,"i/u"
"678","0pan","image-keyboard-response",319,872182,"0.0-17.0-1.46",NA,NA,NA,NA,NA,"681","p","pics/scaled/lieder_leder.jpg","Englisch","11",NA,"selflearn",NA,"uni","classesabroad","immersion","Deutsch an der Uni","24","7 Monate","lieder.wav","0.0-17.0-0.46","lieder","lieder_leder","leder","lieder",1,"i/e"
"680","0pan","image-keyboard-response",321,874623,"0.0-17.0-1.47",NA,NA,NA,NA,NA,"500","q","pics/scaled/siegel_segel.jpg","Englisch","11",NA,"selflearn",NA,"uni","classesabroad","immersion","Deutsch an der Uni","24","7 Monate","segel.wav","0.0-17.0-0.47","segel","siegel_segel","segel","siegel",1,"i/e"
"682","0pan","image-keyboard-response",323,876952,"0.0-17.0-1.48",NA,NA,NA,NA,NA,"569","q","pics/scaled/lieder_leder.jpg","Englisch","11",NA,"selflearn",NA,"uni","classesabroad","immersion","Deutsch an der Uni","24","7 Monate","leder.wav","0.0-17.0-0.48","leder","lieder_leder","leder","lieder",1,"i/e"
"684","0pan","image-keyboard-response",325,878898,"0.0-17.0-1.49",NA,NA,NA,NA,NA,"355","p","pics/scaled/biene_buehne.png","Englisch","11",NA,"selflearn",NA,"uni","classesabroad","immersion","Deutsch an der Uni","24","7 Monate","buehne.wav","0.0-17.0-0.49","buehne","biene_buehne","biene","buehne",1,"y/i"
"686","0pan","image-keyboard-response",327,881520,"0.0-17.0-1.50",NA,NA,NA,NA,NA,"597","p","pics/scaled/spielen_spulen.jpg","Englisch","11",NA,"selflearn",NA,"uni","classesabroad","immersion","Deutsch an der Uni","24","7 Monate","spielen2.wav","0.0-17.0-0.50","spielen","spielen_spulen","spulen","spielen",1,"i/u"
"688","0pan","image-keyboard-response",329,884951,"0.0-17.0-1.51",NA,NA,NA,NA,NA,"1407","q","pics/scaled/spulen_spuelen.jpg","Englisch","11",NA,"selflearn",NA,"uni","classesabroad","immersion","Deutsch an der Uni","24","7 Monate","spulen.wav","0.0-17.0-0.51","spulen","spulen_spuelen","spulen","spuelen",1,"y/u"
"690","0pan","image-keyboard-response",331,887177,"0.0-17.0-1.52",NA,NA,NA,NA,NA,"475","p","pics/scaled/kiel_kuehl.jpg","Englisch","11",NA,"selflearn",NA,"uni","classesabroad","immersion","Deutsch an der Uni","24","7 Monate","kuehl.wav","0.0-17.0-0.52","kuehl","kiel_kuehl","kiel","kuehl",1,"y/i"
"692","0pan","image-keyboard-response",333,889190,"0.0-17.0-1.53",NA,NA,NA,NA,NA,"12","q","pics/scaled/spielen_spuelen.jpg","Englisch","11",NA,"selflearn",NA,"uni","classesabroad","immersion","Deutsch an der Uni","24","7 Monate","spielen.wav","0.0-17.0-0.53","spielen","spielen_spuelen","spielen","spuelen",1,"y/i"
"694","0pan","image-keyboard-response",335,891520,"0.0-17.0-1.54",NA,NA,NA,NA,NA,"297","p","pics/scaled/spielen_spulen.jpg","Englisch","11",NA,"selflearn",NA,"uni","classesabroad","immersion","Deutsch an der Uni","24","7 Monate","spielen2.wav","0.0-17.0-0.54","spielen","spielen_spulen","spulen","spielen",1,"i/u"
"696","0pan","image-keyboard-response",337,895130,"0.0-17.0-1.55",NA,NA,NA,NA,NA,"1628","q","pics/scaled/spulen_spuelen.jpg","Englisch","11",NA,"selflearn",NA,"uni","classesabroad","immersion","Deutsch an der Uni","24","7 Monate","spuelen2.wav","0.0-17.0-0.55","spuelen","spulen_spuelen","spulen","spuelen",0,"y/u"
"698","0pan","image-keyboard-response",339,897572,"0.0-17.0-1.56",NA,NA,NA,NA,NA,"690","q","pics/scaled/kiel_kuehl.jpg","Englisch","11",NA,"selflearn",NA,"uni","classesabroad","immersion","Deutsch an der Uni","24","7 Monate","kiel.wav","0.0-17.0-0.56","kiel","kiel_kuehl","kiel","kuehl",1,"y/i"
"700","0pan","image-keyboard-response",341,900058,"0.0-17.0-1.57",NA,NA,NA,NA,NA,"856","q","pics/scaled/tuer_tour.jpg","Englisch","11",NA,"selflearn",NA,"uni","classesabroad","immersion","Deutsch an der Uni","24","7 Monate","tour.wav","0.0-17.0-0.57","tour","tuer_tour","tour","tuer",1,"y/u"
"702","0pan","image-keyboard-response",343,902083,"0.0-17.0-1.58",NA,NA,NA,NA,NA,"406","p","pics/scaled/tier_tour.jpg","Englisch","11",NA,"selflearn",NA,"uni","classesabroad","immersion","Deutsch an der Uni","24","7 Monate","tour.wav","0.0-17.0-0.58","tour","tier_tour","tier","tour",1,"i/u"
"704","0pan","image-keyboard-response",345,904265,"0.0-17.0-1.59",NA,NA,NA,NA,NA,"183","p","pics/scaled/spielen_spuelen.jpg","Englisch","11",NA,"selflearn",NA,"uni","classesabroad","immersion","Deutsch an der Uni","24","7 Monate","spuelen2.wav","0.0-17.0-0.59","spuelen","spielen_spuelen","spielen","spuelen",1,"y/i"
"706","0pan","image-keyboard-response",347,906335,"0.0-17.0-1.60",NA,NA,NA,NA,NA,"433","q","pics/scaled/tuer_tour.jpg","Englisch","11",NA,"selflearn",NA,"uni","classesabroad","immersion","Deutsch an der Uni","24","7 Monate","tour.wav","0.0-17.0-0.60","tour","tuer_tour","tour","tuer",1,"y/u"
"708","0pan","image-keyboard-response",349,908461,"0.0-17.0-1.61",NA,NA,NA,NA,NA,"221","p","pics/scaled/stiel2_stuhl.jpg","Englisch","11",NA,"selflearn",NA,"uni","classesabroad","immersion","Deutsch an der Uni","24","7 Monate","stuhl.wav","0.0-17.0-0.61","stuhl","stiel_stuhl","stiel","stuhl",1,"i/u"
"710","0pan","image-keyboard-response",351,910482,"0.0-17.0-1.62",NA,NA,NA,NA,NA,"1","q","pics/scaled/spielen_spuelen.jpg","Englisch","11",NA,"selflearn",NA,"uni","classesabroad","immersion","Deutsch an der Uni","24","7 Monate","spielen.wav","0.0-17.0-0.62","spielen","spielen_spuelen","spielen","spuelen",1,"y/i"
"712","0pan","image-keyboard-response",353,913411,"0.0-17.0-1.63",NA,NA,NA,NA,NA,"909","q","pics/scaled/spielen_spulen.jpg","Englisch","11",NA,"selflearn",NA,"uni","classesabroad","immersion","Deutsch an der Uni","24","7 Monate","spulen.wav","0.0-17.0-0.63","spulen","spielen_spulen","spulen","spielen",1,"i/u"
"714","0pan","image-keyboard-response",355,915706,"0.0-17.0-1.64",NA,NA,NA,NA,NA,"666","q","pics/scaled/bluten_blueten.jpg","Englisch","11",NA,"selflearn",NA,"uni","classesabroad","immersion","Deutsch an der Uni","24","7 Monate","blueten.wav","0.0-17.0-0.64","blueten","bluten_blueten","blueten","bluten",1,"y/u"
"716","0pan","image-keyboard-response",357,917797,"0.0-17.0-1.65",NA,NA,NA,NA,NA,"176","q","pics/scaled/stiel2_stuhl.jpg","Englisch","11",NA,"selflearn",NA,"uni","classesabroad","immersion","Deutsch an der Uni","24","7 Monate","stiel.wav","0.0-17.0-0.65","stiel","stiel_stuhl","stiel","stuhl",1,"i/u"
"943","33qh","image-keyboard-response",226,948463,"0.0-17.0-1.0",NA,NA,NA,NA,NA,"1888","q","pics/scaled/kiel_kuehl.jpg","Englisch","10",NA,NA,NA,"uni",NA,"immersion","durch Immersion","10","4 Jahre","kiel.wav","0.0-17.0-0.0","kiel","kiel_kuehl","kiel","kuehl",1,"y/i"
"945","33qh","image-keyboard-response",228,951183,"0.0-17.0-1.1",NA,NA,NA,NA,NA,"986","p","pics/scaled/spielen_spulen.jpg","Englisch","10",NA,NA,NA,"uni",NA,"immersion","durch Immersion","10","4 Jahre","spielen2.wav","0.0-17.0-0.1","spielen","spielen_spulen","spulen","spielen",1,"i/u"
"947","33qh","image-keyboard-response",230,953295,"0.0-17.0-1.2",NA,NA,NA,NA,NA,"404","p","pics/scaled/spielen_spuelen.jpg","Englisch","10",NA,NA,NA,"uni",NA,"immersion","durch Immersion","10","4 Jahre","spuelen2.wav","0.0-17.0-0.2","spuelen","spielen_spuelen","spielen","spuelen",1,"y/i"
"949","33qh","image-keyboard-response",232,956879,"0.0-17.0-1.3",NA,NA,NA,NA,NA,"1922","q","pics/scaled/siegel_segel.jpg","Englisch","10",NA,NA,NA,"uni",NA,"immersion","durch Immersion","10","4 Jahre","segel.wav","0.0-17.0-0.3","segel","siegel_segel","segel","siegel",1,"i/e"
"951","33qh","image-keyboard-response",234,959999,"0.0-17.0-1.4",NA,NA,NA,NA,NA,"1745","p","pics/scaled/biene_buehne.png","Englisch","10",NA,NA,NA,"uni",NA,"immersion","durch Immersion","10","4 Jahre","buehne.wav","0.0-17.0-0.4","buehne","biene_buehne","biene","buehne",1,"y/i"
"953","33qh","image-keyboard-response",236,962559,"0.0-17.0-1.5",NA,NA,NA,NA,NA,"961","p","pics/scaled/stiel2_stuhl.jpg","Englisch","10",NA,NA,NA,"uni",NA,"immersion","durch Immersion","10","4 Jahre","stuhl.wav","0.0-17.0-0.5","stuhl","stiel_stuhl","stiel","stuhl",1,"i/u"
"955","33qh","image-keyboard-response",238,964959,"0.0-17.0-1.6",NA,NA,NA,NA,NA,"1062","q","pics/scaled/tier_tour.jpg","Englisch","10",NA,NA,NA,"uni",NA,"immersion","durch Immersion","10","4 Jahre","tier.wav","0.0-17.0-0.6","tier","tier_tour","tier","tour",1,"i/u"
"957","33qh","image-keyboard-response",240,966992,"0.0-17.0-1.7",NA,NA,NA,NA,NA,"703","q","pics/scaled/tuer_tour.jpg","Englisch","10",NA,NA,NA,"uni",NA,"immersion","durch Immersion","10","4 Jahre","tuer.wav","0.0-17.0-0.7","tuer","tuer_tour","tour","tuer",0,"y/u"
"959","33qh","image-keyboard-response",242,968991,"0.0-17.0-1.8",NA,NA,NA,NA,NA,"264","p","pics/scaled/spielen_spulen.jpg","Englisch","10",NA,NA,NA,"uni",NA,"immersion","durch Immersion","10","4 Jahre","spielen2.wav","0.0-17.0-0.8","spielen","spielen_spulen","spulen","spielen",1,"i/u"
"961","33qh","image-keyboard-response",244,971247,"0.0-17.0-1.9",NA,NA,NA,NA,NA,"918","p","pics/scaled/tier_tour.jpg","Englisch","10",NA,NA,NA,"uni",NA,"immersion","durch Immersion","10","4 Jahre","tour.wav","0.0-17.0-0.9","tour","tier_tour","tier","tour",1,"i/u"
"963","33qh","image-keyboard-response",246,976816,"0.0-17.0-1.10",NA,NA,NA,NA,NA,"4141","p","pics/scaled/bluten_blueten.jpg","Englisch","10",NA,NA,NA,"uni",NA,"immersion","durch Immersion","10","4 Jahre","blueten.wav","0.0-17.0-0.10","blueten","bluten_blueten","blueten","bluten",0,"y/u"
"965","33qh","image-keyboard-response",248,979152,"0.0-17.0-1.11",NA,NA,NA,NA,NA,"672","p","pics/scaled/siegel_segel.jpg","Englisch","10",NA,NA,NA,"uni",NA,"immersion","durch Immersion","10","4 Jahre","segel.wav","0.0-17.0-0.11","segel","siegel_segel","segel","siegel",0,"i/e"
"967","33qh","image-keyboard-response",250,981344,"0.0-17.0-1.12",NA,NA,NA,NA,NA,"589","q","pics/scaled/stiel2_stuhl.jpg","Englisch","10",NA,NA,NA,"uni",NA,"immersion","durch Immersion","10","4 Jahre","stuhl.wav","0.0-17.0-0.12","stuhl","stiel_stuhl","stiel","stuhl",0,"i/u"
"969","33qh","image-keyboard-response",252,984448,"0.0-17.0-1.13",NA,NA,NA,NA,NA,"1765","p","pics/scaled/tuer_tour.jpg","Englisch","10",NA,NA,NA,"uni",NA,"immersion","durch Immersion","10","4 Jahre","tuer.wav","0.0-17.0-0.13","tuer","tuer_tour","tour","tuer",1,"y/u"
"971","33qh","image-keyboard-response",254,986320,"0.0-17.0-1.14",NA,NA,NA,NA,NA,"433","q","pics/scaled/bluten_blueten.jpg","Englisch","10",NA,NA,NA,"uni",NA,"immersion","durch Immersion","10","4 Jahre","bluten.wav","0.0-17.0-0.14","bluten","bluten_blueten","blueten","bluten",0,"y/u"
"973","33qh","image-keyboard-response",256,988336,"0.0-17.0-1.15",NA,NA,NA,NA,NA,"684","q","pics/scaled/tier_tour.jpg","Englisch","10",NA,NA,NA,"uni",NA,"immersion","durch Immersion","10","4 Jahre","tier.wav","0.0-17.0-0.15","tier","tier_tour","tier","tour",1,"i/u"
"975","33qh","image-keyboard-response",258,990416,"0.0-17.0-1.16",NA,NA,NA,NA,NA,"651","q","pics/scaled/bluten_blueten.jpg","Englisch","10",NA,NA,NA,"uni",NA,"immersion","durch Immersion","10","4 Jahre","bluten.wav","0.0-17.0-0.16","bluten","bluten_blueten","blueten","bluten",0,"y/u"
"977","33qh","image-keyboard-response",260,993009,"0.0-17.0-1.17",NA,NA,NA,NA,NA,"945","q","pics/scaled/siegel_segel.jpg","Englisch","10",NA,NA,NA,"uni",NA,"immersion","durch Immersion","10","4 Jahre","siegel.wav","0.0-17.0-0.17","siegel","siegel_segel","segel","siegel",0,"i/e"
"979","33qh","image-keyboard-response",262,996080,"0.0-17.0-1.18",NA,NA,NA,NA,NA,"1625","p","pics/scaled/kiel_kuehl.jpg","Englisch","10",NA,NA,NA,"uni",NA,"immersion","durch Immersion","10","4 Jahre","kuehl.wav","0.0-17.0-0.18","kuehl","kiel_kuehl","kiel","kuehl",1,"y/i"
"981","33qh","image-keyboard-response",264,997856,"0.0-17.0-1.19",NA,NA,NA,NA,NA,"452","p","pics/scaled/tier_tour.jpg","Englisch","10",NA,NA,NA,"uni",NA,"immersion","durch Immersion","10","4 Jahre","tour.wav","0.0-17.0-0.19","tour","tier_tour","tier","tour",1,"i/u"
"983","33qh","image-keyboard-response",266,1e+06,"0.0-17.0-1.20",NA,NA,NA,NA,NA,"808","q","pics/scaled/tuer_tour.jpg","Englisch","10",NA,NA,NA,"uni",NA,"immersion","durch Immersion","10","4 Jahre","tuer.wav","0.0-17.0-0.20","tuer","tuer_tour","tour","tuer",0,"y/u"
"985","33qh","image-keyboard-response",268,1002464,"0.0-17.0-1.21",NA,NA,NA,NA,NA,"1043","q","pics/scaled/bluten_blueten.jpg","Englisch","10",NA,NA,NA,"uni",NA,"immersion","durch Immersion","10","4 Jahre","blueten.wav","0.0-17.0-0.21","blueten","bluten_blueten","blueten","bluten",1,"y/u"
"987","33qh","image-keyboard-response",270,1005441,"0.0-17.0-1.22",NA,NA,NA,NA,NA,"1372","q","pics/scaled/stiel2_stuhl.jpg","Englisch","10",NA,NA,NA,"uni",NA,"immersion","durch Immersion","10","4 Jahre","stiel.wav","0.0-17.0-0.22","stiel","stiel_stuhl","stiel","stuhl",1,"i/u"
"989","33qh","image-keyboard-response",272,1007217,"0.0-17.0-1.23",NA,NA,NA,NA,NA,"338","q","pics/scaled/kiel_kuehl.jpg","Englisch","10",NA,NA,NA,"uni",NA,"immersion","durch Immersion","10","4 Jahre","kiel.wav","0.0-17.0-0.23","kiel","kiel_kuehl","kiel","kuehl",1,"y/i"
"991","33qh","image-keyboard-response",274,1008929,"0.0-17.0-1.24",NA,NA,NA,NA,NA,"378","p","pics/scaled/tier_tour.jpg","Englisch","10",NA,NA,NA,"uni",NA,"immersion","durch Immersion","10","4 Jahre","tour.wav","0.0-17.0-0.24","tour","tier_tour","tier","tour",1,"i/u"
"993","33qh","image-keyboard-response",276,1010929,"0.0-17.0-1.25",NA,NA,NA,NA,NA,"219","q","pics/scaled/spielen_spuelen.jpg","Englisch","10",NA,NA,NA,"uni",NA,"immersion","durch Immersion","10","4 Jahre","spielen.wav","0.0-17.0-0.25","spielen","spielen_spuelen","spielen","spuelen",1,"y/i"
"995","33qh","image-keyboard-response",278,1013329,"0.0-17.0-1.26",NA,NA,NA,NA,NA,"1063","q","pics/scaled/tuer_tour.jpg","Englisch","10",NA,NA,NA,"uni",NA,"immersion","durch Immersion","10","4 Jahre","tour.wav","0.0-17.0-0.26","tour","tuer_tour","tour","tuer",1,"y/u"
"997","33qh","image-keyboard-response",280,1015297,"0.0-17.0-1.27",NA,NA,NA,NA,NA,"314","p","pics/scaled/siegel_segel.jpg","Englisch","10",NA,NA,NA,"uni",NA,"immersion","durch Immersion","10","4 Jahre","siegel.wav","0.0-17.0-0.27","siegel","siegel_segel","segel","siegel",1,"i/e"
"999","33qh","image-keyboard-response",282,1017521,"0.0-17.0-1.28",NA,NA,NA,NA,NA,"843","q","pics/scaled/biene_buehne.png","Englisch","10",NA,NA,NA,"uni",NA,"immersion","durch Immersion","10","4 Jahre","biene.wav","0.0-17.0-0.28","biene","biene_buehne","biene","buehne",1,"y/i"
"1001","33qh","image-keyboard-response",284,1019281,"0.0-17.0-1.29",NA,NA,NA,NA,NA,"281","q","pics/scaled/lieder_leder.jpg","Englisch","10",NA,NA,NA,"uni",NA,"immersion","durch Immersion","10","4 Jahre","leder.wav","0.0-17.0-0.29","leder","lieder_leder","leder","lieder",1,"i/e"
"1003","33qh","image-keyboard-response",286,1021250,"0.0-17.0-1.30",NA,NA,NA,NA,NA,"253","p","pics/scaled/spulen_spuelen.jpg","Englisch","10",NA,NA,NA,"uni",NA,"immersion","durch Immersion","10","4 Jahre","spulen.wav","0.0-17.0-0.30","spulen","spulen_spuelen","spulen","spuelen",0,"y/u"
"1005","33qh","image-keyboard-response",288,1024081,"0.0-17.0-1.31",NA,NA,NA,NA,NA,"1506","q","pics/scaled/tier_tour.jpg","Englisch","10",NA,NA,NA,"uni",NA,"immersion","durch Immersion","10","4 Jahre","tier.wav","0.0-17.0-0.31","tier","tier_tour","tier","tour",1,"i/u"
"1007","33qh","image-keyboard-response",290,1026273,"0.0-17.0-1.32",NA,NA,NA,NA,NA,"540","q","pics/scaled/siegel_segel.jpg","Englisch","10",NA,NA,NA,"uni",NA,"immersion","durch Immersion","10","4 Jahre","segel.wav","0.0-17.0-0.32","segel","siegel_segel","segel","siegel",1,"i/e"
"1009","33qh","image-keyboard-response",292,1028209,"0.0-17.0-1.33",NA,NA,NA,NA,NA,"479","p","pics/scaled/kiel_kuehl.jpg","Englisch","10",NA,NA,NA,"uni",NA,"immersion","durch Immersion","10","4 Jahre","kuehl.wav","0.0-17.0-0.33","kuehl","kiel_kuehl","kiel","kuehl",1,"y/i"
"1011","33qh","image-keyboard-response",294,1030529,"0.0-17.0-1.34",NA,NA,NA,NA,NA,"988","q","pics/scaled/tuer_tour.jpg","Englisch","10",NA,NA,NA,"uni",NA,"immersion","durch Immersion","10","4 Jahre","tour.wav","0.0-17.0-0.34","tour","tuer_tour","tour","tuer",1,"y/u"
"1013","33qh","image-keyboard-response",296,1032417,"0.0-17.0-1.35",NA,NA,NA,NA,NA,"182","p","pics/scaled/spielen_spuelen.jpg","Englisch","10",NA,NA,NA,"uni",NA,"immersion","durch Immersion","10","4 Jahre","spuelen2.wav","0.0-17.0-0.35","spuelen","spielen_spuelen","spielen","spuelen",1,"y/i"
"1015","33qh","image-keyboard-response",298,1034561,"0.0-17.0-1.36",NA,NA,NA,NA,NA,"724","q","pics/scaled/bluten_blueten.jpg","Englisch","10",NA,NA,NA,"uni",NA,"immersion","durch Immersion","10","4 Jahre","bluten.wav","0.0-17.0-0.36","bluten","bluten_blueten","blueten","bluten",0,"y/u"
"1017","33qh","image-keyboard-response",300,1036561,"0.0-17.0-1.37",NA,NA,NA,NA,NA,"541","p","pics/scaled/lieder_leder.jpg","Englisch","10",NA,NA,NA,"uni",NA,"immersion","durch Immersion","10","4 Jahre","lieder.wav","0.0-17.0-0.37","lieder","lieder_leder","leder","lieder",1,"i/e"
"1019","33qh","image-keyboard-response",302,1038369,"0.0-17.0-1.38",NA,NA,NA,NA,NA,"120","p","pics/scaled/spielen_spuelen.jpg","Englisch","10",NA,NA,NA,"uni",NA,"immersion","durch Immersion","10","4 Jahre","spuelen2.wav","0.0-17.0-0.38","spuelen","spielen_spuelen","spielen","spuelen",1,"y/i"
"1021","33qh","image-keyboard-response",304,1040290,"0.0-17.0-1.39",NA,NA,NA,NA,NA,"461","p","pics/scaled/lieder_leder.jpg","Englisch","10",NA,NA,NA,"uni",NA,"immersion","durch Immersion","10","4 Jahre","lieder.wav","0.0-17.0-0.39","lieder","lieder_leder","leder","lieder",1,"i/e"
"1023","33qh","image-keyboard-response",306,1042129,"0.0-17.0-1.40",NA,NA,NA,NA,NA,"467","q","pics/scaled/biene_buehne.png","Englisch","10",NA,NA,NA,"uni",NA,"immersion","durch Immersion","10","4 Jahre","buehne.wav","0.0-17.0-0.40","buehne","biene_buehne","biene","buehne",0,"y/i"
"1025","33qh","image-keyboard-response",308,1043905,"0.0-17.0-1.41",NA,NA,NA,NA,NA,"60","q","pics/scaled/spielen_spuelen.jpg","Englisch","10",NA,NA,NA,"uni",NA,"immersion","durch Immersion","10","4 Jahre","spielen.wav","0.0-17.0-0.41","spielen","spielen_spuelen","spielen","spuelen",1,"y/i"
"1027","33qh","image-keyboard-response",310,1046258,"0.0-17.0-1.42",NA,NA,NA,NA,NA,"624","q","pics/scaled/spielen_spulen.jpg","Englisch","10",NA,NA,NA,"uni",NA,"immersion","durch Immersion","10","4 Jahre","spulen.wav","0.0-17.0-0.42","spulen","spielen_spulen","spulen","spielen",1,"i/u"
"1029","33qh","image-keyboard-response",312,1047922,"0.0-17.0-1.43",NA,NA,NA,NA,NA,"291","q","pics/scaled/biene_buehne.png","Englisch","10",NA,NA,NA,"uni",NA,"immersion","durch Immersion","10","4 Jahre","biene.wav","0.0-17.0-0.43","biene","biene_buehne","biene","buehne",1,"y/i"
"1031","33qh","image-keyboard-response",314,1050370,"0.0-17.0-1.44",NA,NA,NA,NA,NA,"719","p","pics/scaled/spielen_spulen.jpg","Englisch","10",NA,NA,NA,"uni",NA,"immersion","durch Immersion","10","4 Jahre","spielen2.wav","0.0-17.0-0.44","spielen","spielen_spulen","spulen","spielen",1,"i/u"
"1033","33qh","image-keyboard-response",316,1052082,"0.0-17.0-1.45",NA,NA,NA,NA,NA,"248","q","pics/scaled/lieder_leder.jpg","Englisch","10",NA,NA,NA,"uni",NA,"immersion","durch Immersion","10","4 Jahre","leder.wav","0.0-17.0-0.45","leder","lieder_leder","leder","lieder",1,"i/e"
"1035","33qh","image-keyboard-response",318,1054098,"0.0-17.0-1.46",NA,NA,NA,NA,NA,"546","q","pics/scaled/lieder_leder.jpg","Englisch","10",NA,NA,NA,"uni",NA,"immersion","durch Immersion","10","4 Jahre","leder.wav","0.0-17.0-0.46","leder","lieder_leder","leder","lieder",1,"i/e"
"1037","33qh","image-keyboard-response",320,1058562,"0.0-17.0-1.47",NA,NA,NA,NA,NA,"2851","q","pics/scaled/stiel2_stuhl.jpg","Englisch","10",NA,NA,NA,"uni",NA,"immersion","durch Immersion","10","4 Jahre","stiel.wav","0.0-17.0-0.47","stiel","stiel_stuhl","stiel","stuhl",1,"i/u"
"1039","33qh","image-keyboard-response",322,1060802,"0.0-17.0-1.48",NA,NA,NA,NA,NA,"516","q","pics/scaled/spielen_spulen.jpg","Englisch","10",NA,NA,NA,"uni",NA,"immersion","durch Immersion","10","4 Jahre","spulen.wav","0.0-17.0-0.48","spulen","spielen_spulen","spulen","spielen",1,"i/u"
"1041","33qh","image-keyboard-response",324,1062946,"0.0-17.0-1.49",NA,NA,NA,NA,NA,"757","p","pics/scaled/biene_buehne.png","Englisch","10",NA,NA,NA,"uni",NA,"immersion","durch Immersion","10","4 Jahre","buehne.wav","0.0-17.0-0.49","buehne","biene_buehne","biene","buehne",1,"y/i"
"1043","33qh","image-keyboard-response",326,1064850,"0.0-17.0-1.50",NA,NA,NA,NA,NA,"478","p","pics/scaled/bluten_blueten.jpg","Englisch","10",NA,NA,NA,"uni",NA,"immersion","durch Immersion","10","4 Jahre","blueten.wav","0.0-17.0-0.50","blueten","bluten_blueten","blueten","bluten",0,"y/u"
"1045","33qh","image-keyboard-response",328,1067298,"0.0-17.0-1.51",NA,NA,NA,NA,NA,"789","p","pics/scaled/siegel_segel.jpg","Englisch","10",NA,NA,NA,"uni",NA,"immersion","durch Immersion","10","4 Jahre","siegel.wav","0.0-17.0-0.51","siegel","siegel_segel","segel","siegel",1,"i/e"
"1047","33qh","image-keyboard-response",330,1069283,"0.0-17.0-1.52",NA,NA,NA,NA,NA,"289","p","pics/scaled/spulen_spuelen.jpg","Englisch","10",NA,NA,NA,"uni",NA,"immersion","durch Immersion","10","4 Jahre","spuelen2.wav","0.0-17.0-0.52","spuelen","spulen_spuelen","spulen","spuelen",1,"y/u"
"1049","33qh","image-keyboard-response",332,1071154,"0.0-17.0-1.53",NA,NA,NA,NA,NA,"164","p","pics/scaled/spulen_spuelen.jpg","Englisch","10",NA,NA,NA,"uni",NA,"immersion","durch Immersion","10","4 Jahre","spuelen2.wav","0.0-17.0-0.53","spuelen","spulen_spuelen","spulen","spuelen",1,"y/u"
"1051","33qh","image-keyboard-response",334,1073266,"0.0-17.0-1.54",NA,NA,NA,NA,NA,"418","q","pics/scaled/spulen_spuelen.jpg","Englisch","10",NA,NA,NA,"uni",NA,"immersion","durch Immersion","10","4 Jahre","spuelen2.wav","0.0-17.0-0.54","spuelen","spulen_spuelen","spulen","spuelen",0,"y/u"
"1053","33qh","image-keyboard-response",336,1075187,"0.0-17.0-1.55",NA,NA,NA,NA,NA,"458","p","pics/scaled/lieder_leder.jpg","Englisch","10",NA,NA,NA,"uni",NA,"immersion","durch Immersion","10","4 Jahre","lieder.wav","0.0-17.0-0.55","lieder","lieder_leder","leder","lieder",1,"i/e"
"1055","33qh","image-keyboard-response",338,1077571,"0.0-17.0-1.56",NA,NA,NA,NA,NA,"775","p","pics/scaled/stiel2_stuhl.jpg","Englisch","10",NA,NA,NA,"uni",NA,"immersion","durch Immersion","10","4 Jahre","stiel.wav","0.0-17.0-0.56","stiel","stiel_stuhl","stiel","stuhl",0,"i/u"
"1057","33qh","image-keyboard-response",340,1079459,"0.0-17.0-1.57",NA,NA,NA,NA,NA,"550","q","pics/scaled/tuer_tour.jpg","Englisch","10",NA,NA,NA,"uni",NA,"immersion","durch Immersion","10","4 Jahre","tour.wav","0.0-17.0-0.57","tour","tuer_tour","tour","tuer",1,"y/u"
"1059","33qh","image-keyboard-response",342,1081139,"0.0-17.0-1.58",NA,NA,NA,NA,NA,"233","q","pics/scaled/kiel_kuehl.jpg","Englisch","10",NA,NA,NA,"uni",NA,"immersion","durch Immersion","10","4 Jahre","kiel.wav","0.0-17.0-0.58","kiel","kiel_kuehl","kiel","kuehl",1,"y/i"
"1061","33qh","image-keyboard-response",344,1082947,"0.0-17.0-1.59",NA,NA,NA,NA,NA,"114","q","pics/scaled/spielen_spuelen.jpg","Englisch","10",NA,NA,NA,"uni",NA,"immersion","durch Immersion","10","4 Jahre","spielen.wav","0.0-17.0-0.59","spielen","spielen_spuelen","spielen","spuelen",1,"y/i"
"1063","33qh","image-keyboard-response",346,1085091,"0.0-17.0-1.60",NA,NA,NA,NA,NA,"423","p","pics/scaled/spulen_spuelen.jpg","Englisch","10",NA,NA,NA,"uni",NA,"immersion","durch Immersion","10","4 Jahre","spulen.wav","0.0-17.0-0.60","spulen","spulen_spuelen","spulen","spuelen",0,"y/u"
"1065","33qh","image-keyboard-response",348,1086835,"0.0-17.0-1.61",NA,NA,NA,NA,NA,"356","q","pics/scaled/biene_buehne.png","Englisch","10",NA,NA,NA,"uni",NA,"immersion","durch Immersion","10","4 Jahre","biene.wav","0.0-17.0-0.61","biene","biene_buehne","biene","buehne",1,"y/i"
"1067","33qh","image-keyboard-response",350,1088643,"0.0-17.0-1.62",NA,NA,NA,NA,NA,"353","p","pics/scaled/kiel_kuehl.jpg","Englisch","10",NA,NA,NA,"uni",NA,"immersion","durch Immersion","10","4 Jahre","kuehl.wav","0.0-17.0-0.62","kuehl","kiel_kuehl","kiel","kuehl",1,"y/i"
"1069","33qh","image-keyboard-response",352,1090659,"0.0-17.0-1.63",NA,NA,NA,NA,NA,"297","p","pics/scaled/spulen_spuelen.jpg","Englisch","10",NA,NA,NA,"uni",NA,"immersion","durch Immersion","10","4 Jahre","spulen.wav","0.0-17.0-0.63","spulen","spulen_spuelen","spulen","spuelen",0,"y/u"
"1071","33qh","image-keyboard-response",354,1092915,"0.0-17.0-1.64",NA,NA,NA,NA,NA,"649","p","pics/scaled/stiel2_stuhl.jpg","Englisch","10",NA,NA,NA,"uni",NA,"immersion","durch Immersion","10","4 Jahre","stuhl.wav","0.0-17.0-0.64","stuhl","stiel_stuhl","stiel","stuhl",1,"i/u"
"1073","33qh","image-keyboard-response",356,1094915,"0.0-17.0-1.65",NA,NA,NA,NA,NA,"281","q","pics/scaled/spielen_spulen.jpg","Englisch","10",NA,NA,NA,"uni",NA,"immersion","durch Immersion","10","4 Jahre","spulen.wav","0.0-17.0-0.65","spulen","spielen_spulen","spulen","spielen",1,"i/u"
"1300","4d9c","image-keyboard-response",226,621055,"0.0-17.0-1.0",NA,NA,NA,NA,NA,"908","p","pics/scaled/lieder_leder.jpg","Englisch","13","classeshome",NA,NA,NA,NA,"immersion","","20","9 Monate","lieder.wav","0.0-17.0-0.0","lieder","lieder_leder","leder","lieder",1,"i/e"
"1302","4d9c","image-keyboard-response",228,622997,"0.0-17.0-1.1",NA,NA,NA,NA,NA,"231","p","pics/scaled/spielen_spulen.jpg","Englisch","13","classeshome",NA,NA,NA,NA,"immersion","","20","9 Monate","spielen2.wav","0.0-17.0-0.1","spielen","spielen_spulen","spulen","spielen",1,"i/u"
"1304","4d9c","image-keyboard-response",230,624783,"0.0-17.0-1.2",NA,NA,NA,NA,NA,"77","p","pics/scaled/spielen_spulen.jpg","Englisch","13","classeshome",NA,NA,NA,NA,"immersion","","20","9 Monate","spielen2.wav","0.0-17.0-0.2","spielen","spielen_spulen","spulen","spielen",1,"i/u"
"1306","4d9c","image-keyboard-response",232,626882,"0.0-17.0-1.3",NA,NA,NA,NA,NA,"776","p","pics/scaled/tuer_tour.jpg","Englisch","13","classeshome",NA,NA,NA,NA,"immersion","","20","9 Monate","tuer.wav","0.0-17.0-0.3","tuer","tuer_tour","tour","tuer",1,"y/u"
"1308","4d9c","image-keyboard-response",234,628918,"0.0-17.0-1.4",NA,NA,NA,NA,NA,"592","q","pics/scaled/kiel_kuehl.jpg","Englisch","13","classeshome",NA,NA,NA,NA,"immersion","","20","9 Monate","kiel.wav","0.0-17.0-0.4","kiel","kiel_kuehl","kiel","kuehl",1,"y/i"
"1310","4d9c","image-keyboard-response",236,631471,"0.0-17.0-1.5",NA,NA,NA,NA,NA,"866","p","pics/scaled/spielen_spuelen.jpg","Englisch","13","classeshome",NA,NA,NA,NA,"immersion","","20","9 Monate","spuelen2.wav","0.0-17.0-0.5","spuelen","spielen_spuelen","spielen","spuelen",1,"y/i"
"1312","4d9c","image-keyboard-response",238,633898,"0.0-17.0-1.6",NA,NA,NA,NA,NA,"1133","p","pics/scaled/tuer_tour.jpg","Englisch","13","classeshome",NA,NA,NA,NA,"immersion","","20","9 Monate","tuer.wav","0.0-17.0-0.6","tuer","tuer_tour","tour","tuer",1,"y/u"
"1314","4d9c","image-keyboard-response",240,635805,"0.0-17.0-1.7",NA,NA,NA,NA,NA,"599","q","pics/scaled/tier_tour.jpg","Englisch","13","classeshome",NA,NA,NA,NA,"immersion","","20","9 Monate","tier.wav","0.0-17.0-0.7","tier","tier_tour","tier","tour",1,"i/u"
"1316","4d9c","image-keyboard-response",242,638003,"0.0-17.0-1.8",NA,NA,NA,NA,NA,"597","q","pics/scaled/stiel2_stuhl.jpg","Englisch","13","classeshome",NA,NA,NA,NA,"immersion","","20","9 Monate","stiel.wav","0.0-17.0-0.8","stiel","stiel_stuhl","stiel","stuhl",1,"i/u"
"1318","4d9c","image-keyboard-response",244,639952,"0.0-17.0-1.9",NA,NA,NA,NA,NA,"545","p","pics/scaled/bluten_blueten.jpg","Englisch","13","classeshome",NA,NA,NA,NA,"immersion","","20","9 Monate","bluten.wav","0.0-17.0-0.9","bluten","bluten_blueten","blueten","bluten",1,"y/u"
"1320","4d9c","image-keyboard-response",246,641941,"0.0-17.0-1.10",NA,NA,NA,NA,NA,"695","p","pics/scaled/tuer_tour.jpg","Englisch","13","classeshome",NA,NA,NA,NA,"immersion","","20","9 Monate","tuer.wav","0.0-17.0-0.10","tuer","tuer_tour","tour","tuer",1,"y/u"
"1322","4d9c","image-keyboard-response",248,644376,"0.0-17.0-1.11",NA,NA,NA,NA,NA,"870","q","pics/scaled/stiel2_stuhl.jpg","Englisch","13","classeshome",NA,NA,NA,NA,"immersion","","20","9 Monate","stiel.wav","0.0-17.0-0.11","stiel","stiel_stuhl","stiel","stuhl",1,"i/u"
"1324","4d9c","image-keyboard-response",250,646204,"0.0-17.0-1.12",NA,NA,NA,NA,NA,"117","q","pics/scaled/spielen_spulen.jpg","Englisch","13","classeshome",NA,NA,NA,NA,"immersion","","20","9 Monate","spulen.wav","0.0-17.0-0.12","spulen","spielen_spulen","spulen","spielen",1,"i/u"
"1326","4d9c","image-keyboard-response",252,648175,"0.0-17.0-1.13",NA,NA,NA,NA,NA,"609","p","pics/scaled/biene_buehne.png","Englisch","13","classeshome",NA,NA,NA,NA,"immersion","","20","9 Monate","buehne.wav","0.0-17.0-0.13","buehne","biene_buehne","biene","buehne",1,"y/i"
"1328","4d9c","image-keyboard-response",254,650090,"0.0-17.0-1.14",NA,NA,NA,NA,NA,"225","p","pics/scaled/spulen_spuelen.jpg","Englisch","13","classeshome",NA,NA,NA,NA,"immersion","","20","9 Monate","spuelen2.wav","0.0-17.0-0.14","spuelen","spulen_spuelen","spulen","spuelen",1,"y/u"
"1330","4d9c","image-keyboard-response",256,651786,"0.0-17.0-1.15",NA,NA,NA,NA,NA,"379","p","pics/scaled/tier_tour.jpg","Englisch","13","classeshome",NA,NA,NA,NA,"immersion","","20","9 Monate","tour.wav","0.0-17.0-0.15","tour","tier_tour","tier","tour",1,"i/u"
"1332","4d9c","image-keyboard-response",258,653550,"0.0-17.0-1.16",NA,NA,NA,NA,NA,"124","q","pics/scaled/siegel_segel.jpg","Englisch","13","classeshome",NA,NA,NA,NA,"immersion","","20","9 Monate","segel.wav","0.0-17.0-0.16","segel","siegel_segel","segel","siegel",1,"i/e"
"1334","4d9c","image-keyboard-response",260,655251,"0.0-17.0-1.17",NA,NA,NA,NA,NA,"244","q","pics/scaled/lieder_leder.jpg","Englisch","13","classeshome",NA,NA,NA,NA,"immersion","","20","9 Monate","leder.wav","0.0-17.0-0.17","leder","lieder_leder","leder","lieder",1,"i/e"
"1336","4d9c","image-keyboard-response",262,656979,"0.0-17.0-1.18",NA,NA,NA,NA,NA,"60","p","pics/scaled/spielen_spuelen.jpg","Englisch","13","classeshome",NA,NA,NA,NA,"immersion","","20","9 Monate","spuelen2.wav","0.0-17.0-0.18","spuelen","spielen_spuelen","spielen","spuelen",1,"y/i"
"1338","4d9c","image-keyboard-response",264,658586,"0.0-17.0-1.19",NA,NA,NA,NA,NA,"187","q","pics/scaled/kiel_kuehl.jpg","Englisch","13","classeshome",NA,NA,NA,NA,"immersion","","20","9 Monate","kiel.wav","0.0-17.0-0.19","kiel","kiel_kuehl","kiel","kuehl",1,"y/i"
"1340","4d9c","image-keyboard-response",266,660409,"0.0-17.0-1.20",NA,NA,NA,NA,NA,"370","p","pics/scaled/lieder_leder.jpg","Englisch","13","classeshome",NA,NA,NA,NA,"immersion","","20","9 Monate","lieder.wav","0.0-17.0-0.20","lieder","lieder_leder","leder","lieder",1,"i/e"
"1342","4d9c","image-keyboard-response",268,662268,"0.0-17.0-1.21",NA,NA,NA,NA,NA,"228","p","pics/scaled/siegel_segel.jpg","Englisch","13","classeshome",NA,NA,NA,NA,"immersion","","20","9 Monate","siegel.wav","0.0-17.0-0.21","siegel","siegel_segel","segel","siegel",1,"i/e"
"1344","4d9c","image-keyboard-response",270,664209,"0.0-17.0-1.22",NA,NA,NA,NA,NA,"9","q","pics/scaled/spielen_spuelen.jpg","Englisch","13","classeshome",NA,NA,NA,NA,"immersion","","20","9 Monate","spielen.wav","0.0-17.0-0.22","spielen","spielen_spuelen","spielen","spuelen",1,"y/i"
"1346","4d9c","image-keyboard-response",272,665907,"0.0-17.0-1.23",NA,NA,NA,NA,NA,"388","q","pics/scaled/tier_tour.jpg","Englisch","13","classeshome",NA,NA,NA,NA,"immersion","","20","9 Monate","tier.wav","0.0-17.0-0.23","tier","tier_tour","tier","tour",1,"i/u"
"1348","4d9c","image-keyboard-response",274,667997,"0.0-17.0-1.24",NA,NA,NA,NA,NA,"377","q","pics/scaled/spulen_spuelen.jpg","Englisch","13","classeshome",NA,NA,NA,NA,"immersion","","20","9 Monate","spulen.wav","0.0-17.0-0.24","spulen","spulen_spuelen","spulen","spuelen",1,"y/u"
"1350","4d9c","image-keyboard-response",276,669905,"0.0-17.0-1.25",NA,NA,NA,NA,NA,"445","q","pics/scaled/lieder_leder.jpg","Englisch","13","classeshome",NA,NA,NA,NA,"immersion","","20","9 Monate","leder.wav","0.0-17.0-0.25","leder","lieder_leder","leder","lieder",1,"i/e"
"1352","4d9c","image-keyboard-response",278,671852,"0.0-17.0-1.26",NA,NA,NA,NA,NA,"352","q","pics/scaled/stiel2_stuhl.jpg","Englisch","13","classeshome",NA,NA,NA,NA,"immersion","","20","9 Monate","stiel.wav","0.0-17.0-0.26","stiel","stiel_stuhl","stiel","stuhl",1,"i/u"
"1354","4d9c","image-keyboard-response",280,673509,"0.0-17.0-1.27",NA,NA,NA,NA,NA,"307","q","pics/scaled/biene_buehne.png","Englisch","13","classeshome",NA,NA,NA,NA,"immersion","","20","9 Monate","biene.wav","0.0-17.0-0.27","biene","biene_buehne","biene","buehne",1,"y/i"
"1356","4d9c","image-keyboard-response",282,675233,"0.0-17.0-1.28",NA,NA,NA,NA,NA,"15","q","pics/scaled/spielen_spulen.jpg","Englisch","13","classeshome",NA,NA,NA,NA,"immersion","","20","9 Monate","spulen.wav","0.0-17.0-0.28","spulen","spielen_spulen","spulen","spielen",1,"i/u"
"1358","4d9c","image-keyboard-response",284,677172,"0.0-17.0-1.29",NA,NA,NA,NA,NA,"354","p","pics/scaled/stiel2_stuhl.jpg","Englisch","13","classeshome",NA,NA,NA,NA,"immersion","","20","9 Monate","stuhl.wav","0.0-17.0-0.29","stuhl","stiel_stuhl","stiel","stuhl",1,"i/u"
"1360","4d9c","image-keyboard-response",286,679019,"0.0-17.0-1.30",NA,NA,NA,NA,NA,"162","q","pics/scaled/spielen_spuelen.jpg","Englisch","13","classeshome",NA,NA,NA,NA,"immersion","","20","9 Monate","spielen.wav","0.0-17.0-0.30","spielen","spielen_spuelen","spielen","spuelen",1,"y/i"
"1362","4d9c","image-keyboard-response",288,680783,"0.0-17.0-1.31",NA,NA,NA,NA,NA,"325","p","pics/scaled/kiel_kuehl.jpg","Englisch","13","classeshome",NA,NA,NA,NA,"immersion","","20","9 Monate","kuehl.wav","0.0-17.0-0.31","kuehl","kiel_kuehl","kiel","kuehl",1,"y/i"
"1364","4d9c","image-keyboard-response",290,682978,"0.0-17.0-1.32",NA,NA,NA,NA,NA,"480","q","pics/scaled/spulen_spuelen.jpg","Englisch","13","classeshome",NA,NA,NA,NA,"immersion","","20","9 Monate","spulen.wav","0.0-17.0-0.32","spulen","spulen_spuelen","spulen","spuelen",1,"y/u"
"1366","4d9c","image-keyboard-response",292,686516,"0.0-17.0-1.33",NA,NA,NA,NA,NA,"2239","q","pics/scaled/tuer_tour.jpg","Englisch","13","classeshome",NA,NA,NA,NA,"immersion","","20","9 Monate","tour.wav","0.0-17.0-0.33","tour","tuer_tour","tour","tuer",1,"y/u"
"1368","4d9c","image-keyboard-response",294,688535,"0.0-17.0-1.34",NA,NA,NA,NA,NA,"718","p","pics/scaled/tier_tour.jpg","Englisch","13","classeshome",NA,NA,NA,NA,"immersion","","20","9 Monate","tour.wav","0.0-17.0-0.34","tour","tier_tour","tier","tour",1,"i/u"
"1370","4d9c","image-keyboard-response",296,692150,"0.0-17.0-1.35",NA,NA,NA,NA,NA,"2212","p","pics/scaled/bluten_blueten.jpg","Englisch","13","classeshome",NA,NA,NA,NA,"immersion","","20","9 Monate","blueten.wav","0.0-17.0-0.35","blueten","bluten_blueten","blueten","bluten",0,"y/u"
"1372","4d9c","image-keyboard-response",298,694126,"0.0-17.0-1.36",NA,NA,NA,NA,NA,"268","p","pics/scaled/spielen_spulen.jpg","Englisch","13","classeshome",NA,NA,NA,NA,"immersion","","20","9 Monate","spielen2.wav","0.0-17.0-0.36","spielen","spielen_spulen","spulen","spielen",1,"i/u"
"1374","4d9c","image-keyboard-response",300,696364,"0.0-17.0-1.37",NA,NA,NA,NA,NA,"606","p","pics/scaled/siegel_segel.jpg","Englisch","13","classeshome",NA,NA,NA,NA,"immersion","","20","9 Monate","siegel.wav","0.0-17.0-0.37","siegel","siegel_segel","segel","siegel",1,"i/e"
"1376","4d9c","image-keyboard-response",302,698065,"0.0-17.0-1.38",NA,NA,NA,NA,NA,"327","q","pics/scaled/biene_buehne.png","Englisch","13","classeshome",NA,NA,NA,NA,"immersion","","20","9 Monate","biene.wav","0.0-17.0-0.38","biene","biene_buehne","biene","buehne",1,"y/i"
"1378","4d9c","image-keyboard-response",304,699937,"0.0-17.0-1.39",NA,NA,NA,NA,NA,"260","p","pics/scaled/siegel_segel.jpg","Englisch","13","classeshome",NA,NA,NA,NA,"immersion","","20","9 Monate","siegel.wav","0.0-17.0-0.39","siegel","siegel_segel","segel","siegel",1,"i/e"
"1380","4d9c","image-keyboard-response",306,702640,"0.0-17.0-1.40",NA,NA,NA,NA,NA,"1322","p","pics/scaled/bluten_blueten.jpg","Englisch","13","classeshome",NA,NA,NA,NA,"immersion","","20","9 Monate","blueten.wav","0.0-17.0-0.40","blueten","bluten_blueten","blueten","bluten",0,"y/u"
"1382","4d9c","image-keyboard-response",308,704572,"0.0-17.0-1.41",NA,NA,NA,NA,NA,"235","q","pics/scaled/spulen_spuelen.jpg","Englisch","13","classeshome",NA,NA,NA,NA,"immersion","","20","9 Monate","spuelen2.wav","0.0-17.0-0.41","spuelen","spulen_spuelen","spulen","spuelen",0,"y/u"
"1384","4d9c","image-keyboard-response",310,706471,"0.0-17.0-1.42",NA,NA,NA,NA,NA,"314","p","pics/scaled/stiel2_stuhl.jpg","Englisch","13","classeshome",NA,NA,NA,NA,"immersion","","20","9 Monate","stuhl.wav","0.0-17.0-0.42","stuhl","stiel_stuhl","stiel","stuhl",1,"i/u"
"1386","4d9c","image-keyboard-response",312,708188,"0.0-17.0-1.43",NA,NA,NA,NA,NA,"411","q","pics/scaled/tier_tour.jpg","Englisch","13","classeshome",NA,NA,NA,NA,"immersion","","20","9 Monate","tier.wav","0.0-17.0-0.43","tier","tier_tour","tier","tour",1,"i/u"
"1388","4d9c","image-keyboard-response",314,709896,"0.0-17.0-1.44",NA,NA,NA,NA,NA,"278","p","pics/scaled/kiel_kuehl.jpg","Englisch","13","classeshome",NA,NA,NA,NA,"immersion","","20","9 Monate","kuehl.wav","0.0-17.0-0.44","kuehl","kiel_kuehl","kiel","kuehl",1,"y/i"
"1390","4d9c","image-keyboard-response",316,711539,"0.0-17.0-1.45",NA,NA,NA,NA,NA,"1","q","pics/scaled/siegel_segel.jpg","Englisch","13","classeshome",NA,NA,NA,NA,"immersion","","20","9 Monate","segel.wav","0.0-17.0-0.45","segel","siegel_segel","segel","siegel",1,"i/e"
"1392","4d9c","image-keyboard-response",318,713886,"0.0-17.0-1.46",NA,NA,NA,NA,NA,"947","p","pics/scaled/bluten_blueten.jpg","Englisch","13","classeshome",NA,NA,NA,NA,"immersion","","20","9 Monate","bluten.wav","0.0-17.0-0.46","bluten","bluten_blueten","blueten","bluten",1,"y/u"
"1394","4d9c","image-keyboard-response",320,715688,"0.0-17.0-1.47",NA,NA,NA,NA,NA,"243","p","pics/scaled/stiel2_stuhl.jpg","Englisch","13","classeshome",NA,NA,NA,NA,"immersion","","20","9 Monate","stuhl.wav","0.0-17.0-0.47","stuhl","stiel_stuhl","stiel","stuhl",1,"i/u"
"1396","4d9c","image-keyboard-response",322,717365,"0.0-17.0-1.48",NA,NA,NA,NA,NA,"240","p","pics/scaled/kiel_kuehl.jpg","Englisch","13","classeshome",NA,NA,NA,NA,"immersion","","20","9 Monate","kuehl.wav","0.0-17.0-0.48","kuehl","kiel_kuehl","kiel","kuehl",1,"y/i"
"1398","4d9c","image-keyboard-response",324,719007,"0.0-17.0-1.49",NA,NA,NA,NA,NA,"262","p","pics/scaled/biene_buehne.png","Englisch","13","classeshome",NA,NA,NA,NA,"immersion","","20","9 Monate","buehne.wav","0.0-17.0-0.49","buehne","biene_buehne","biene","buehne",1,"y/i"
"1400","4d9c","image-keyboard-response",326,721058,"0.0-17.0-1.50",NA,NA,NA,NA,NA,"653","p","pics/scaled/bluten_blueten.jpg","Englisch","13","classeshome",NA,NA,NA,NA,"immersion","","20","9 Monate","bluten.wav","0.0-17.0-0.50","bluten","bluten_blueten","blueten","bluten",1,"y/u"
"1402","4d9c","image-keyboard-response",328,723047,"0.0-17.0-1.51",NA,NA,NA,NA,NA,"682","p","pics/scaled/tier_tour.jpg","Englisch","13","classeshome",NA,NA,NA,NA,"immersion","","20","9 Monate","tour.wav","0.0-17.0-0.51","tour","tier_tour","tier","tour",1,"i/u"
"1404","4d9c","image-keyboard-response",330,724714,"0.0-17.0-1.52",NA,NA,NA,NA,NA,"229","q","pics/scaled/kiel_kuehl.jpg","Englisch","13","classeshome",NA,NA,NA,NA,"immersion","","20","9 Monate","kiel.wav","0.0-17.0-0.52","kiel","kiel_kuehl","kiel","kuehl",1,"y/i"
"1406","4d9c","image-keyboard-response",332,726596,"0.0-17.0-1.53",NA,NA,NA,NA,NA,"172","q","pics/scaled/spulen_spuelen.jpg","Englisch","13","classeshome",NA,NA,NA,NA,"immersion","","20","9 Monate","spulen.wav","0.0-17.0-0.53","spulen","spulen_spuelen","spulen","spuelen",1,"y/u"
"1408","4d9c","image-keyboard-response",334,728314,"0.0-17.0-1.54",NA,NA,NA,NA,NA,"269","p","pics/scaled/lieder_leder.jpg","Englisch","13","classeshome",NA,NA,NA,NA,"immersion","","20","9 Monate","lieder.wav","0.0-17.0-0.54","lieder","lieder_leder","leder","lieder",1,"i/e"
"1410","4d9c","image-keyboard-response",336,730387,"0.0-17.0-1.55",NA,NA,NA,NA,NA,"382","q","pics/scaled/spielen_spulen.jpg","Englisch","13","classeshome",NA,NA,NA,NA,"immersion","","20","9 Monate","spulen.wav","0.0-17.0-0.55","spulen","spielen_spulen","spulen","spielen",1,"i/u"
"1412","4d9c","image-keyboard-response",338,732290,"0.0-17.0-1.56",NA,NA,NA,NA,NA,"505","p","pics/scaled/bluten_blueten.jpg","Englisch","13","classeshome",NA,NA,NA,NA,"immersion","","20","9 Monate","blueten.wav","0.0-17.0-0.56","blueten","bluten_blueten","blueten","bluten",0,"y/u"
"1414","4d9c","image-keyboard-response",340,734434,"0.0-17.0-1.57",NA,NA,NA,NA,NA,"449","p","pics/scaled/spielen_spuelen.jpg","Englisch","13","classeshome",NA,NA,NA,NA,"immersion","","20","9 Monate","spuelen2.wav","0.0-17.0-0.57","spuelen","spielen_spuelen","spielen","spuelen",1,"y/i"
"1416","4d9c","image-keyboard-response",342,736090,"0.0-17.0-1.58",NA,NA,NA,NA,NA,"25","q","pics/scaled/siegel_segel.jpg","Englisch","13","classeshome",NA,NA,NA,NA,"immersion","","20","9 Monate","segel.wav","0.0-17.0-0.58","segel","siegel_segel","segel","siegel",1,"i/e"
"1418","4d9c","image-keyboard-response",344,738342,"0.0-17.0-1.59",NA,NA,NA,NA,NA,"958","q","pics/scaled/tuer_tour.jpg","Englisch","13","classeshome",NA,NA,NA,NA,"immersion","","20","9 Monate","tour.wav","0.0-17.0-0.59","tour","tuer_tour","tour","tuer",1,"y/u"
"1420","4d9c","image-keyboard-response",346,740020,"0.0-17.0-1.60",NA,NA,NA,NA,NA,"295","q","pics/scaled/biene_buehne.png","Englisch","13","classeshome",NA,NA,NA,NA,"immersion","","20","9 Monate","biene.wav","0.0-17.0-0.60","biene","biene_buehne","biene","buehne",1,"y/i"
"1422","4d9c","image-keyboard-response",348,742488,"0.0-17.0-1.61",NA,NA,NA,NA,NA,"1163","q","pics/scaled/tuer_tour.jpg","Englisch","13","classeshome",NA,NA,NA,NA,"immersion","","20","9 Monate","tour.wav","0.0-17.0-0.61","tour","tuer_tour","tour","tuer",1,"y/u"
"1424","4d9c","image-keyboard-response",350,744191,"0.0-17.0-1.62",NA,NA,NA,NA,NA,"6","q","pics/scaled/spielen_spuelen.jpg","Englisch","13","classeshome",NA,NA,NA,NA,"immersion","","20","9 Monate","spielen.wav","0.0-17.0-0.62","spielen","spielen_spuelen","spielen","spuelen",1,"y/i"
"1426","4d9c","image-keyboard-response",352,745997,"0.0-17.0-1.63",NA,NA,NA,NA,NA,"353","q","pics/scaled/lieder_leder.jpg","Englisch","13","classeshome",NA,NA,NA,NA,"immersion","","20","9 Monate","leder.wav","0.0-17.0-0.63","leder","lieder_leder","leder","lieder",1,"i/e"
"1428","4d9c","image-keyboard-response",354,747665,"0.0-17.0-1.64",NA,NA,NA,NA,NA,"0","q","pics/scaled/spulen_spuelen.jpg","Englisch","13","classeshome",NA,NA,NA,NA,"immersion","","20","9 Monate","spuelen2.wav","0.0-17.0-0.64","spuelen","spulen_spuelen","spulen","spuelen",0,"y/u"
"1430","4d9c","image-keyboard-response",356,749266,"0.0-17.0-1.65",NA,NA,NA,NA,NA,"221","p","pics/scaled/biene_buehne.png","Englisch","13","classeshome",NA,NA,NA,NA,"immersion","","20","9 Monate","buehne.wav","0.0-17.0-0.65","buehne","biene_buehne","biene","buehne",1,"y/i"
"1658","71wt","image-keyboard-response",227,582435,"0.0-17.0-1.0",NA,NA,NA,NA,NA,"1086","p","pics/scaled/tuer_tour.jpg","Englisch","11","classeshome","selflearn",NA,"uni",NA,"immersion","In ein deutschsprachiges Land wohnen","20","14 Monaten","tuer.wav","0.0-17.0-0.0","tuer","tuer_tour","tour","tuer",1,"y/u"
"1660","71wt","image-keyboard-response",229,584228,"0.0-17.0-1.1",NA,NA,NA,NA,NA,"509","q","pics/scaled/tuer_tour.jpg","Englisch","11","classeshome","selflearn",NA,"uni",NA,"immersion","In ein deutschsprachiges Land wohnen","20","14 Monaten","tour.wav","0.0-17.0-0.1","tour","tuer_tour","tour","tuer",1,"y/u"
"1662","71wt","image-keyboard-response",231,586749,"0.0-17.0-1.2",NA,NA,NA,NA,NA,"1102","p","pics/scaled/lieder_leder.jpg","Englisch","11","classeshome","selflearn",NA,"uni",NA,"immersion","In ein deutschsprachiges Land wohnen","20","14 Monaten","lieder.wav","0.0-17.0-0.2","lieder","lieder_leder","leder","lieder",1,"i/e"
"1664","71wt","image-keyboard-response",233,589592,"0.0-17.0-1.3",NA,NA,NA,NA,NA,"1164","q","pics/scaled/spielen_spulen.jpg","Englisch","11","classeshome","selflearn",NA,"uni",NA,"immersion","In ein deutschsprachiges Land wohnen","20","14 Monaten","spulen.wav","0.0-17.0-0.3","spulen","spielen_spulen","spulen","spielen",1,"i/u"
"1666","71wt","image-keyboard-response",235,591439,"0.0-17.0-1.4",NA,NA,NA,NA,NA,"512","p","pics/scaled/biene_buehne.png","Englisch","11","classeshome","selflearn",NA,"uni",NA,"immersion","In ein deutschsprachiges Land wohnen","20","14 Monaten","buehne.wav","0.0-17.0-0.4","buehne","biene_buehne","biene","buehne",1,"y/i"
"1668","71wt","image-keyboard-response",237,594268,"0.0-17.0-1.5",NA,NA,NA,NA,NA,"1157","q","pics/scaled/spielen_spulen.jpg","Englisch","11","classeshome","selflearn",NA,"uni",NA,"immersion","In ein deutschsprachiges Land wohnen","20","14 Monaten","spulen.wav","0.0-17.0-0.5","spulen","spielen_spulen","spulen","spielen",1,"i/u"
"1670","71wt","image-keyboard-response",239,595963,"0.0-17.0-1.6",NA,NA,NA,NA,NA,"354","p","pics/scaled/biene_buehne.png","Englisch","11","classeshome","selflearn",NA,"uni",NA,"immersion","In ein deutschsprachiges Land wohnen","20","14 Monaten","buehne.wav","0.0-17.0-0.6","buehne","biene_buehne","biene","buehne",1,"y/i"
"1672","71wt","image-keyboard-response",241,598321,"0.0-17.0-1.7",NA,NA,NA,NA,NA,"1096","p","pics/scaled/tuer_tour.jpg","Englisch","11","classeshome","selflearn",NA,"uni",NA,"immersion","In ein deutschsprachiges Land wohnen","20","14 Monaten","tuer.wav","0.0-17.0-0.7","tuer","tuer_tour","tour","tuer",1,"y/u"
"1674","71wt","image-keyboard-response",243,600845,"0.0-17.0-1.8",NA,NA,NA,NA,NA,"1128","p","pics/scaled/kiel_kuehl.jpg","Englisch","11","classeshome","selflearn",NA,"uni",NA,"immersion","In ein deutschsprachiges Land wohnen","20","14 Monaten","kuehl.wav","0.0-17.0-0.8","kuehl","kiel_kuehl","kiel","kuehl",1,"y/i"
"1676","71wt","image-keyboard-response",245,603405,"0.0-17.0-1.9",NA,NA,NA,NA,NA,"761","q","pics/scaled/spielen_spuelen.jpg","Englisch","11","classeshome","selflearn",NA,"uni",NA,"immersion","In ein deutschsprachiges Land wohnen","20","14 Monaten","spielen.wav","0.0-17.0-0.9","spielen","spielen_spuelen","spielen","spuelen",1,"y/i"
"1678","71wt","image-keyboard-response",247,605282,"0.0-17.0-1.10",NA,NA,NA,NA,NA,"545","q","pics/scaled/tier_tour.jpg","Englisch","11","classeshome","selflearn",NA,"uni",NA,"immersion","In ein deutschsprachiges Land wohnen","20","14 Monaten","tier.wav","0.0-17.0-0.10","tier","tier_tour","tier","tour",1,"i/u"
"1680","71wt","image-keyboard-response",249,607311,"0.0-17.0-1.11",NA,NA,NA,NA,NA,"372","p","pics/scaled/spielen_spuelen.jpg","Englisch","11","classeshome","selflearn",NA,"uni",NA,"immersion","In ein deutschsprachiges Land wohnen","20","14 Monaten","spuelen2.wav","0.0-17.0-0.11","spuelen","spielen_spuelen","spielen","spuelen",1,"y/i"
"1682","71wt","image-keyboard-response",251,609756,"0.0-17.0-1.12",NA,NA,NA,NA,NA,"888","q","pics/scaled/stiel2_stuhl.jpg","Englisch","11","classeshome","selflearn",NA,"uni",NA,"immersion","In ein deutschsprachiges Land wohnen","20","14 Monaten","stiel.wav","0.0-17.0-0.12","stiel","stiel_stuhl","stiel","stuhl",1,"i/u"
"1684","71wt","image-keyboard-response",253,611885,"0.0-17.0-1.13",NA,NA,NA,NA,NA,"738","q","pics/scaled/kiel_kuehl.jpg","Englisch","11","classeshome","selflearn",NA,"uni",NA,"immersion","In ein deutschsprachiges Land wohnen","20","14 Monaten","kiel.wav","0.0-17.0-0.13","kiel","kiel_kuehl","kiel","kuehl",1,"y/i"
"1686","71wt","image-keyboard-response",255,614921,"0.0-17.0-1.14",NA,NA,NA,NA,NA,"1381","q","pics/scaled/spulen_spuelen.jpg","Englisch","11","classeshome","selflearn",NA,"uni",NA,"immersion","In ein deutschsprachiges Land wohnen","20","14 Monaten","spuelen2.wav","0.0-17.0-0.14","spuelen","spulen_spuelen","spulen","spuelen",0,"y/u"
"1688","71wt","image-keyboard-response",257,620858,"0.0-17.0-1.15",NA,NA,NA,NA,NA,"4260","p","pics/scaled/spulen_spuelen.jpg","Englisch","11","classeshome","selflearn",NA,"uni",NA,"immersion","In ein deutschsprachiges Land wohnen","20","14 Monaten","spulen.wav","0.0-17.0-0.15","spulen","spulen_spuelen","spulen","spuelen",0,"y/u"
"1690","71wt","image-keyboard-response",259,623495,"0.0-17.0-1.16",NA,NA,NA,NA,NA,"340","p","pics/scaled/kiel_kuehl.jpg","Englisch","11","classeshome","selflearn",NA,"uni",NA,"immersion","In ein deutschsprachiges Land wohnen","20","14 Monaten","kuehl.wav","0.0-17.0-0.16","kuehl","kiel_kuehl","kiel","kuehl",1,"y/i"
"1692","71wt","image-keyboard-response",261,625130,"0.0-17.0-1.17",NA,NA,NA,NA,NA,"228","q","pics/scaled/lieder_leder.jpg","Englisch","11","classeshome","selflearn",NA,"uni",NA,"immersion","In ein deutschsprachiges Land wohnen","20","14 Monaten","leder.wav","0.0-17.0-0.17","leder","lieder_leder","leder","lieder",1,"i/e"
"1694","71wt","image-keyboard-response",263,627224,"0.0-17.0-1.18",NA,NA,NA,NA,NA,"546","q","pics/scaled/stiel2_stuhl.jpg","Englisch","11","classeshome","selflearn",NA,"uni",NA,"immersion","In ein deutschsprachiges Land wohnen","20","14 Monaten","stiel.wav","0.0-17.0-0.18","stiel","stiel_stuhl","stiel","stuhl",1,"i/u"
"1696","71wt","image-keyboard-response",265,629179,"0.0-17.0-1.19",NA,NA,NA,NA,NA,"290","p","pics/scaled/spielen_spulen.jpg","Englisch","11","classeshome","selflearn",NA,"uni",NA,"immersion","In ein deutschsprachiges Land wohnen","20","14 Monaten","spielen2.wav","0.0-17.0-0.19","spielen","spielen_spulen","spulen","spielen",1,"i/u"
"1698","71wt","image-keyboard-response",267,631271,"0.0-17.0-1.20",NA,NA,NA,NA,NA,"829","p","pics/scaled/tuer_tour.jpg","Englisch","11","classeshome","selflearn",NA,"uni",NA,"immersion","In ein deutschsprachiges Land wohnen","20","14 Monaten","tuer.wav","0.0-17.0-0.20","tuer","tuer_tour","tour","tuer",1,"y/u"
"1700","71wt","image-keyboard-response",269,632863,"0.0-17.0-1.21",NA,NA,NA,NA,NA,"324","q","pics/scaled/tuer_tour.jpg","Englisch","11","classeshome","selflearn",NA,"uni",NA,"immersion","In ein deutschsprachiges Land wohnen","20","14 Monaten","tour.wav","0.0-17.0-0.21","tour","tuer_tour","tour","tuer",1,"y/u"
"1702","71wt","image-keyboard-response",271,634907,"0.0-17.0-1.22",NA,NA,NA,NA,NA,"681","p","pics/scaled/bluten_blueten.jpg","Englisch","11","classeshome","selflearn",NA,"uni",NA,"immersion","In ein deutschsprachiges Land wohnen","20","14 Monaten","bluten.wav","0.0-17.0-0.22","bluten","bluten_blueten","blueten","bluten",1,"y/u"
"1704","71wt","image-keyboard-response",273,637170,"0.0-17.0-1.23",NA,NA,NA,NA,NA,"604","p","pics/scaled/spielen_spuelen.jpg","Englisch","11","classeshome","selflearn",NA,"uni",NA,"immersion","In ein deutschsprachiges Land wohnen","20","14 Monaten","spuelen2.wav","0.0-17.0-0.23","spuelen","spielen_spuelen","spielen","spuelen",1,"y/i"
"1706","71wt","image-keyboard-response",275,638935,"0.0-17.0-1.24",NA,NA,NA,NA,NA,"347","q","pics/scaled/lieder_leder.jpg","Englisch","11","classeshome","selflearn",NA,"uni",NA,"immersion","In ein deutschsprachiges Land wohnen","20","14 Monaten","leder.wav","0.0-17.0-0.24","leder","lieder_leder","leder","lieder",1,"i/e"
"1708","71wt","image-keyboard-response",277,641936,"0.0-17.0-1.25",NA,NA,NA,NA,NA,"1627","p","pics/scaled/bluten_blueten.jpg","Englisch","11","classeshome","selflearn",NA,"uni",NA,"immersion","In ein deutschsprachiges Land wohnen","20","14 Monaten","bluten.wav","0.0-17.0-0.25","bluten","bluten_blueten","blueten","bluten",1,"y/u"
"1710","71wt","image-keyboard-response",279,644813,"0.0-17.0-1.26",NA,NA,NA,NA,NA,"1605","p","pics/scaled/tier_tour.jpg","Englisch","11","classeshome","selflearn",NA,"uni",NA,"immersion","In ein deutschsprachiges Land wohnen","20","14 Monaten","tour.wav","0.0-17.0-0.26","tour","tier_tour","tier","tour",1,"i/u"
"1712","71wt","image-keyboard-response",281,646906,"0.0-17.0-1.27",NA,NA,NA,NA,NA,"503","q","pics/scaled/siegel_segel.jpg","Englisch","11","classeshome","selflearn",NA,"uni",NA,"immersion","In ein deutschsprachiges Land wohnen","20","14 Monaten","segel.wav","0.0-17.0-0.27","segel","siegel_segel","segel","siegel",1,"i/e"
"1714","71wt","image-keyboard-response",283,649082,"0.0-17.0-1.28",NA,NA,NA,NA,NA,"499","q","pics/scaled/spielen_spulen.jpg","Englisch","11","classeshome","selflearn",NA,"uni",NA,"immersion","In ein deutschsprachiges Land wohnen","20","14 Monaten","spulen.wav","0.0-17.0-0.28","spulen","spielen_spulen","spulen","spielen",1,"i/u"
"1716","71wt","image-keyboard-response",285,650897,"0.0-17.0-1.29",NA,NA,NA,NA,NA,"432","p","pics/scaled/kiel_kuehl.jpg","Englisch","11","classeshome","selflearn",NA,"uni",NA,"immersion","In ein deutschsprachiges Land wohnen","20","14 Monaten","kuehl.wav","0.0-17.0-0.29","kuehl","kiel_kuehl","kiel","kuehl",1,"y/i"
"1718","71wt","image-keyboard-response",287,652692,"0.0-17.0-1.30",NA,NA,NA,NA,NA,"243","q","pics/scaled/stiel2_stuhl.jpg","Englisch","11","classeshome","selflearn",NA,"uni",NA,"immersion","In ein deutschsprachiges Land wohnen","20","14 Monaten","stiel.wav","0.0-17.0-0.30","stiel","stiel_stuhl","stiel","stuhl",1,"i/u"
"1720","71wt","image-keyboard-response",289,654808,"0.0-17.0-1.31",NA,NA,NA,NA,NA,"453","q","pics/scaled/spulen_spuelen.jpg","Englisch","11","classeshome","selflearn",NA,"uni",NA,"immersion","In ein deutschsprachiges Land wohnen","20","14 Monaten","spulen.wav","0.0-17.0-0.31","spulen","spulen_spuelen","spulen","spuelen",1,"y/u"
"1722","71wt","image-keyboard-response",291,657052,"0.0-17.0-1.32",NA,NA,NA,NA,NA,"836","q","pics/scaled/lieder_leder.jpg","Englisch","11","classeshome","selflearn",NA,"uni",NA,"immersion","In ein deutschsprachiges Land wohnen","20","14 Monaten","lieder.wav","0.0-17.0-0.32","lieder","lieder_leder","leder","lieder",0,"i/e"
"1724","71wt","image-keyboard-response",293,658920,"0.0-17.0-1.33",NA,NA,NA,NA,NA,"281","q","pics/scaled/siegel_segel.jpg","Englisch","11","classeshome","selflearn",NA,"uni",NA,"immersion","In ein deutschsprachiges Land wohnen","20","14 Monaten","segel.wav","0.0-17.0-0.33","segel","siegel_segel","segel","siegel",1,"i/e"
"1726","71wt","image-keyboard-response",295,661180,"0.0-17.0-1.34",NA,NA,NA,NA,NA,"603","q","pics/scaled/spulen_spuelen.jpg","Englisch","11","classeshome","selflearn",NA,"uni",NA,"immersion","In ein deutschsprachiges Land wohnen","20","14 Monaten","spuelen2.wav","0.0-17.0-0.34","spuelen","spulen_spuelen","spulen","spuelen",0,"y/u"
"1728","71wt","image-keyboard-response",297,663014,"0.0-17.0-1.35",NA,NA,NA,NA,NA,"240","q","pics/scaled/siegel_segel.jpg","Englisch","11","classeshome","selflearn",NA,"uni",NA,"immersion","In ein deutschsprachiges Land wohnen","20","14 Monaten","segel.wav","0.0-17.0-0.35","segel","siegel_segel","segel","siegel",1,"i/e"
"1730","71wt","image-keyboard-response",299,664616,"0.0-17.0-1.36",NA,NA,NA,NA,NA,"271","p","pics/scaled/biene_buehne.png","Englisch","11","classeshome","selflearn",NA,"uni",NA,"immersion","In ein deutschsprachiges Land wohnen","20","14 Monaten","buehne.wav","0.0-17.0-0.36","buehne","biene_buehne","biene","buehne",1,"y/i"
"1732","71wt","image-keyboard-response",301,666611,"0.0-17.0-1.37",NA,NA,NA,NA,NA,"333","q","pics/scaled/spielen_spuelen.jpg","Englisch","11","classeshome","selflearn",NA,"uni",NA,"immersion","In ein deutschsprachiges Land wohnen","20","14 Monaten","spielen.wav","0.0-17.0-0.37","spielen","spielen_spuelen","spielen","spuelen",1,"y/i"
"1734","71wt","image-keyboard-response",303,668368,"0.0-17.0-1.38",NA,NA,NA,NA,NA,"106","p","pics/scaled/spielen_spuelen.jpg","Englisch","11","classeshome","selflearn",NA,"uni",NA,"immersion","In ein deutschsprachiges Land wohnen","20","14 Monaten","spuelen2.wav","0.0-17.0-0.38","spuelen","spielen_spuelen","spielen","spuelen",1,"y/i"
"1736","71wt","image-keyboard-response",305,669910,"0.0-17.0-1.39",NA,NA,NA,NA,NA,"275","q","pics/scaled/tier_tour.jpg","Englisch","11","classeshome","selflearn",NA,"uni",NA,"immersion","In ein deutschsprachiges Land wohnen","20","14 Monaten","tier.wav","0.0-17.0-0.39","tier","tier_tour","tier","tour",1,"i/u"
"1738","71wt","image-keyboard-response",307,671971,"0.0-17.0-1.40",NA,NA,NA,NA,NA,"647","p","pics/scaled/lieder_leder.jpg","Englisch","11","classeshome","selflearn",NA,"uni",NA,"immersion","In ein deutschsprachiges Land wohnen","20","14 Monaten","lieder.wav","0.0-17.0-0.40","lieder","lieder_leder","leder","lieder",1,"i/e"
"1740","71wt","image-keyboard-response",309,673791,"0.0-17.0-1.41",NA,NA,NA,NA,NA,"423","q","pics/scaled/kiel_kuehl.jpg","Englisch","11","classeshome","selflearn",NA,"uni",NA,"immersion","In ein deutschsprachiges Land wohnen","20","14 Monaten","kiel.wav","0.0-17.0-0.41","kiel","kiel_kuehl","kiel","kuehl",1,"y/i"
"1742","71wt","image-keyboard-response",311,676178,"0.0-17.0-1.42",NA,NA,NA,NA,NA,"765","p","pics/scaled/siegel_segel.jpg","Englisch","11","classeshome","selflearn",NA,"uni",NA,"immersion","In ein deutschsprachiges Land wohnen","20","14 Monaten","siegel.wav","0.0-17.0-0.42","siegel","siegel_segel","segel","siegel",1,"i/e"
"1744","71wt","image-keyboard-response",313,678521,"0.0-17.0-1.43",NA,NA,NA,NA,NA,"754","p","pics/scaled/siegel_segel.jpg","Englisch","11","classeshome","selflearn",NA,"uni",NA,"immersion","In ein deutschsprachiges Land wohnen","20","14 Monaten","siegel.wav","0.0-17.0-0.43","siegel","siegel_segel","segel","siegel",1,"i/e"
"1746","71wt","image-keyboard-response",315,684061,"0.0-17.0-1.44",NA,NA,NA,NA,NA,"4269","q","pics/scaled/tuer_tour.jpg","Englisch","11","classeshome","selflearn",NA,"uni",NA,"immersion","In ein deutschsprachiges Land wohnen","20","14 Monaten","tour.wav","0.0-17.0-0.44","tour","tuer_tour","tour","tuer",1,"y/u"
"1748","71wt","image-keyboard-response",317,686861,"0.0-17.0-1.45",NA,NA,NA,NA,NA,"252","p","pics/scaled/spulen_spuelen.jpg","Englisch","11","classeshome","selflearn",NA,"uni",NA,"immersion","In ein deutschsprachiges Land wohnen","20","14 Monaten","spuelen2.wav","0.0-17.0-0.45","spuelen","spulen_spuelen","spulen","spuelen",1,"y/u"
"1750","71wt","image-keyboard-response",319,691722,"0.0-17.0-1.46",NA,NA,NA,NA,NA,"3493","q","pics/scaled/bluten_blueten.jpg","Englisch","11","classeshome","selflearn",NA,"uni",NA,"immersion","In ein deutschsprachiges Land wohnen","20","14 Monaten","blueten.wav","0.0-17.0-0.46","blueten","bluten_blueten","blueten","bluten",1,"y/u"
"1752","71wt","image-keyboard-response",321,696173,"0.0-17.0-1.47",NA,NA,NA,NA,NA,"1950","p","pics/scaled/siegel_segel.jpg","Englisch","11","classeshome","selflearn",NA,"uni",NA,"immersion","In ein deutschsprachiges Land wohnen","20","14 Monaten","siegel.wav","0.0-17.0-0.47","siegel","siegel_segel","segel","siegel",1,"i/e"
"1754","71wt","image-keyboard-response",323,698087,"0.0-17.0-1.48",NA,NA,NA,NA,NA,"589","q","pics/scaled/biene_buehne.png","Englisch","11","classeshome","selflearn",NA,"uni",NA,"immersion","In ein deutschsprachiges Land wohnen","20","14 Monaten","biene.wav","0.0-17.0-0.48","biene","biene_buehne","biene","buehne",1,"y/i"
"1756","71wt","image-keyboard-response",325,699599,"0.0-17.0-1.49",NA,NA,NA,NA,NA,"238","q","pics/scaled/tier_tour.jpg","Englisch","11","classeshome","selflearn",NA,"uni",NA,"immersion","In ein deutschsprachiges Land wohnen","20","14 Monaten","tier.wav","0.0-17.0-0.49","tier","tier_tour","tier","tour",1,"i/u"
"1758","71wt","image-keyboard-response",327,701432,"0.0-17.0-1.50",NA,NA,NA,NA,NA,"279","p","pics/scaled/stiel2_stuhl.jpg","Englisch","11","classeshome","selflearn",NA,"uni",NA,"immersion","In ein deutschsprachiges Land wohnen","20","14 Monaten","stuhl.wav","0.0-17.0-0.50","stuhl","stiel_stuhl","stiel","stuhl",1,"i/u"
"1760","71wt","image-keyboard-response",329,703558,"0.0-17.0-1.51",NA,NA,NA,NA,NA,"738","q","pics/scaled/kiel_kuehl.jpg","Englisch","11","classeshome","selflearn",NA,"uni",NA,"immersion","In ein deutschsprachiges Land wohnen","20","14 Monaten","kiel.wav","0.0-17.0-0.51","kiel","kiel_kuehl","kiel","kuehl",1,"y/i"
"1762","71wt","image-keyboard-response",331,707366,"0.0-17.0-1.52",NA,NA,NA,NA,NA,"2455","p","pics/scaled/tier_tour.jpg","Englisch","11","classeshome","selflearn",NA,"uni",NA,"immersion","In ein deutschsprachiges Land wohnen","20","14 Monaten","tour.wav","0.0-17.0-0.52","tour","tier_tour","tier","tour",1,"i/u"
"1764","71wt","image-keyboard-response",333,710630,"0.0-17.0-1.53",NA,NA,NA,NA,NA,"1882","q","pics/scaled/bluten_blueten.jpg","Englisch","11","classeshome","selflearn",NA,"uni",NA,"immersion","In ein deutschsprachiges Land wohnen","20","14 Monaten","blueten.wav","0.0-17.0-0.53","blueten","bluten_blueten","blueten","bluten",1,"y/u"
"1766","71wt","image-keyboard-response",335,712357,"0.0-17.0-1.54",NA,NA,NA,NA,NA,"386","q","pics/scaled/biene_buehne.png","Englisch","11","classeshome","selflearn",NA,"uni",NA,"immersion","In ein deutschsprachiges Land wohnen","20","14 Monaten","biene.wav","0.0-17.0-0.54","biene","biene_buehne","biene","buehne",1,"y/i"
"1768","71wt","image-keyboard-response",337,714581,"0.0-17.0-1.55",NA,NA,NA,NA,NA,"957","p","pics/scaled/tier_tour.jpg","Englisch","11","classeshome","selflearn",NA,"uni",NA,"immersion","In ein deutschsprachiges Land wohnen","20","14 Monaten","tour.wav","0.0-17.0-0.55","tour","tier_tour","tier","tour",1,"i/u"
"1770","71wt","image-keyboard-response",339,716420,"0.0-17.0-1.56",NA,NA,NA,NA,NA,"186","q","pics/scaled/spielen_spuelen.jpg","Englisch","11","classeshome","selflearn",NA,"uni",NA,"immersion","In ein deutschsprachiges Land wohnen","20","14 Monaten","spielen.wav","0.0-17.0-0.56","spielen","spielen_spuelen","spielen","spuelen",1,"y/i"
"1772","71wt","image-keyboard-response",341,718587,"0.0-17.0-1.57",NA,NA,NA,NA,NA,"502","p","pics/scaled/spielen_spulen.jpg","Englisch","11","classeshome","selflearn",NA,"uni",NA,"immersion","In ein deutschsprachiges Land wohnen","20","14 Monaten","spielen2.wav","0.0-17.0-0.57","spielen","spielen_spulen","spulen","spielen",1,"i/u"
"1774","71wt","image-keyboard-response",343,720755,"0.0-17.0-1.58",NA,NA,NA,NA,NA,"579","p","pics/scaled/stiel2_stuhl.jpg","Englisch","11","classeshome","selflearn",NA,"uni",NA,"immersion","In ein deutschsprachiges Land wohnen","20","14 Monaten","stuhl.wav","0.0-17.0-0.58","stuhl","stiel_stuhl","stiel","stuhl",1,"i/u"
"1776","71wt","image-keyboard-response",345,722651,"0.0-17.0-1.59",NA,NA,NA,NA,NA,"561","q","pics/scaled/biene_buehne.png","Englisch","11","classeshome","selflearn",NA,"uni",NA,"immersion","In ein deutschsprachiges Land wohnen","20","14 Monaten","biene.wav","0.0-17.0-0.59","biene","biene_buehne","biene","buehne",1,"y/i"
"1778","71wt","image-keyboard-response",347,724610,"0.0-17.0-1.60",NA,NA,NA,NA,NA,"405","p","pics/scaled/stiel2_stuhl.jpg","Englisch","11","classeshome","selflearn",NA,"uni",NA,"immersion","In ein deutschsprachiges Land wohnen","20","14 Monaten","stuhl.wav","0.0-17.0-0.60","stuhl","stiel_stuhl","stiel","stuhl",1,"i/u"
"1780","71wt","image-keyboard-response",349,728407,"0.0-17.0-1.61",NA,NA,NA,NA,NA,"2430","p","pics/scaled/bluten_blueten.jpg","Englisch","11","classeshome","selflearn",NA,"uni",NA,"immersion","In ein deutschsprachiges Land wohnen","20","14 Monaten","bluten.wav","0.0-17.0-0.61","bluten","bluten_blueten","blueten","bluten",1,"y/u"
"1782","71wt","image-keyboard-response",351,730176,"0.0-17.0-1.62",NA,NA,NA,NA,NA,"104","p","pics/scaled/spielen_spulen.jpg","Englisch","11","classeshome","selflearn",NA,"uni",NA,"immersion","In ein deutschsprachiges Land wohnen","20","14 Monaten","spielen2.wav","0.0-17.0-0.62","spielen","spielen_spulen","spulen","spielen",1,"i/u"
"1784","71wt","image-keyboard-response",353,733011,"0.0-17.0-1.63",NA,NA,NA,NA,NA,"1366","p","pics/scaled/bluten_blueten.jpg","Englisch","11","classeshome","selflearn",NA,"uni",NA,"immersion","In ein deutschsprachiges Land wohnen","20","14 Monaten","blueten.wav","0.0-17.0-0.63","blueten","bluten_blueten","blueten","bluten",0,"y/u"
"1786","71wt","image-keyboard-response",355,736737,"0.0-17.0-1.64",NA,NA,NA,NA,NA,"2056","q","pics/scaled/spulen_spuelen.jpg","Englisch","11","classeshome","selflearn",NA,"uni",NA,"immersion","In ein deutschsprachiges Land wohnen","20","14 Monaten","spulen.wav","0.0-17.0-0.64","spulen","spulen_spuelen","spulen","spuelen",1,"y/u"
"1788","71wt","image-keyboard-response",357,738415,"0.0-17.0-1.65",NA,NA,NA,NA,NA,"271","q","pics/scaled/lieder_leder.jpg","Englisch","11","classeshome","selflearn",NA,"uni",NA,"immersion","In ein deutschsprachiges Land wohnen","20","14 Monaten","leder.wav","0.0-17.0-0.65","leder","lieder_leder","leder","lieder",1,"i/e"
"2018","8dul","image-keyboard-response",229,757300,"0.0-17.0-1.0",NA,NA,NA,NA,NA,"883","q","pics/scaled/spulen_spuelen.jpg","Engish ","12",NA,NA,"lgeschool",NA,NA,NA,"","","","spulen.wav","0.0-17.0-0.0","spulen","spulen_spuelen","spulen","spuelen",1,"y/u"
"2020","8dul","image-keyboard-response",231,759494,"0.0-17.0-1.1",NA,NA,NA,NA,NA,"698","p","pics/scaled/lieder_leder.jpg","Engish ","12",NA,NA,"lgeschool",NA,NA,NA,"","","","lieder.wav","0.0-17.0-0.1","lieder","lieder_leder","leder","lieder",1,"i/e"
"2022","8dul","image-keyboard-response",233,761779,"0.0-17.0-1.2",NA,NA,NA,NA,NA,"822","q","pics/scaled/kiel_kuehl.jpg","Engish ","12",NA,NA,"lgeschool",NA,NA,NA,"","","","kuehl.wav","0.0-17.0-0.2","kuehl","kiel_kuehl","kiel","kuehl",0,"y/i"
"2024","8dul","image-keyboard-response",235,764038,"0.0-17.0-1.3",NA,NA,NA,NA,NA,"824","q","pics/scaled/kiel_kuehl.jpg","Engish ","12",NA,NA,"lgeschool",NA,NA,NA,"","","","kuehl.wav","0.0-17.0-0.3","kuehl","kiel_kuehl","kiel","kuehl",0,"y/i"
"2026","8dul","image-keyboard-response",237,766172,"0.0-17.0-1.4",NA,NA,NA,NA,NA,"278","q","pics/scaled/spielen_spuelen.jpg","Engish ","12",NA,NA,"lgeschool",NA,NA,NA,"","","","spielen.wav","0.0-17.0-0.4","spielen","spielen_spuelen","spielen","spuelen",1,"y/i"
"2028","8dul","image-keyboard-response",239,768112,"0.0-17.0-1.5",NA,NA,NA,NA,NA,"596","p","pics/scaled/tuer_tour.jpg","Engish ","12",NA,NA,"lgeschool",NA,NA,NA,"","","","tuer.wav","0.0-17.0-0.5","tuer","tuer_tour","tour","tuer",1,"y/u"
"2030","8dul","image-keyboard-response",241,770344,"0.0-17.0-1.6",NA,NA,NA,NA,NA,"550","q","pics/scaled/siegel_segel.jpg","Engish ","12",NA,NA,"lgeschool",NA,NA,NA,"","","","siegel.wav","0.0-17.0-0.6","siegel","siegel_segel","segel","siegel",0,"i/e"
"2032","8dul","image-keyboard-response",243,773573,"0.0-17.0-1.7",NA,NA,NA,NA,NA,"1796","q","pics/scaled/bluten_blueten.jpg","Engish ","12",NA,NA,"lgeschool",NA,NA,NA,"","","","blueten.wav","0.0-17.0-0.7","blueten","bluten_blueten","blueten","bluten",1,"y/u"
